Acc_X,Acc_Y,Acc_Z,Gyro_X,Gyro_Y,Gyro_Z,Pitch,Roll,Label
3.3011345743671754,2.1307098693961666,-0.2737901240163142,267.76826901506945,-266.6968002490699,-210.7249286155274,72.6038808146671,74.81292321068507,1
0.2997788749331214,-0.10978603635282447,1.131822145900739,2.6806583250287943,-17.172952159876772,45.78167457650146,-0.6468388029409553,-13.952258436532198,0
-0.20653303257802835,0.4324212023639844,0.6758928656091625,-16.803594411519974,33.57609261098938,-18.05994159606582,-26.398062961142625,9.879899321686537,0
-2.216416319681178,2.925663283326273,-0.20416785985361208,-204.7567768557505,290.41985035075265,-203.549890051833,-85.47660913418441,-83.37844047739794,1
-2.3992682553299858,3.948290794775008,0.008608736532932149,-248.73729282318084,-291.4358214418016,290.4353664210107,-63.07634795119969,-56.26925721537531,1
-3.082429032278574,-3.813387199289556,2.956948587823324,-228.01166902875343,214.35317634853664,-284.8365897960026,-77.46107481222771,73.0097249512119,1
-0.4449046413821085,-0.7851133502143381,1.6636930296569994,-44.509705927678176,38.94513356151363,29.168493517295417,-13.622175645706246,-8.931659887522741,0
-2.963351767766131,2.850944818269416,0.16099911640061326,-277.48399074721226,-217.85243166171568,-220.01930341119993,-83.38663492380071,53.968210851278045,1
-0.2986815248545154,-0.4167128758047598,1.9030582195801025,36.79072087046136,24.236981730529678,-13.182614540020168,-29.538251503755905,-28.761217316550397,0
-0.4180954558683112,-0.020790912369709424,1.4939853674836239,20.128494920489175,38.20469744936682,23.340734969627235,12.227263457580335,2.152883683323573,0
-3.1877656025371586,-3.375770478444528,2.8160014938153086,-228.38162618546522,204.45139645876276,-286.9942644011643,-67.13531602043001,78.559554945146,1
0.3734114275395757,-0.1368806187324072,1.2400753756906722,45.11411559486825,-8.508115856460542,-14.868549122002229,10.935568136000711,-5.89316405049011,0
-0.21430785009715203,-0.838119205173631,2.1129163105366815,-41.775361109922386,-9.828006618540975,29.181113730394316,-15.361459870469572,-15.30806628054268,0
-0.35159311397519266,-0.32687300537982034,1.7527493341158185,48.81274113908698,-5.30781314549472,-43.0221531914033,12.461796591276652,-2.9050457029997787,0
-0.1602884578531809,0.48886694960607135,1.7111288236493452,-39.38935588817492,33.80903282672398,36.36988718982323,-23.40836527258535,-5.796722420723263,0
-3.353851261671677,3.067598779711437,2.8266934290502284,241.92690461590726,-212.54345144642048,262.7167373263421,79.65142969427765,58.87103499051095,1
-2.334742575613435,2.7304279030753342,2.759038988151444,296.93101658328953,262.86190628474765,-283.4638339848446,66.20828276085439,-61.03988645723294,1
-2.5631410803654475,2.688369607582858,-0.009343010515204253,-227.72653165870406,239.97661592288534,-265.0309965904716,69.97413836091171,84.04047392658435,1
-0.8608136046538424,0.19011388612073366,0.5621690479496595,-31.71003580448659,-49.366677691610306,-35.372684886072506,18.72784039275644,12.751622061680216,0
3.3450440890606927,-3.857573112380887,-0.9333081203278564,-286.0181357969089,-219.79501843031096,202.8189593581474,-76.67930093810529,64.45194784897399,1
0.02703115231791875,0.3471518320575002,1.8729726215743254,-9.708931953285074,25.352089353523283,-28.54129201842044,-16.91525882571138,2.540362753706752,0
-0.9760074910008114,0.1938229777840097,2.0065278421128623,23.26827156676252,-16.16252444741825,36.20236177034634,18.24522591041182,-10.387669701337234,0
0.35384985086621956,-0.45383758303261534,1.6544766836977216,16.137215764403905,19.342823518010306,-48.421437825654145,-23.223360226960807,-0.3844314696584199,0
2.6322879858388726,2.719100494677782,3.7994854126671718,-213.03671138328303,279.0362534275233,-221.4317751617947,55.09763982441025,62.70466357402059,1
0.6832957418252563,-0.1512686521528912,1.9387326204597595,42.75789383836465,-32.03460322333032,-42.41513615799967,-14.67456698335038,21.037687162789382,0
-0.5417452568600218,-0.07977392723607579,2.429596264078574,-44.70707188171914,22.047290860555663,26.127497381856827,4.816982005649265,13.966521268169863,0
-0.21697376298509763,0.31040156895333304,0.7216122133196314,-8.092990718230887,-26.755024030690457,20.198101005753472,2.7532956524199363,28.421394597881594,0
-3.729839088478176,3.2317261880794668,-0.658167648181996,299.2965904041939,-226.62719443410404,-218.33880729627074,-82.35851314028776,-67.78521419502846,1
0.496311629856512,-0.7814016032240003,2.3209234375518024,-39.21973769365283,49.7567916064731,-16.473901771348622,23.07943172787612,21.699152856066277,0
0.3796015565258686,0.2793447442452204,0.7406356383449693,-0.22284446291124027,-15.178707817464833,-6.456974526508077,19.925611989454033,-29.059063319243645,0
0.06589884435695215,-0.5654047413760745,1.601105494064631,35.78234466094899,-8.274741620556036,34.651371009566105,-7.82089009428449,-15.00410319834918,0
-3.912164242188913,-3.1038887817528558,3.9616897793596153,230.39629322768235,-267.212696915532,233.41627496201414,81.10278607163302,57.47812040498604,1
2.4302442557364863,-2.371059302840554,-0.17122550932676273,207.19322617911703,298.66008251611726,-284.7402888779396,-80.77391489109957,-76.18079649291606,1
0.34239042977286394,-0.47852648056072655,2.142324777543015,-16.64504238054939,-38.50802581616814,31.13712241213375,-20.45841458312811,-25.0767156168433,0
-0.07345406790567721,0.3361416835924247,1.5369512022913825,36.23350861948616,-13.649482143890268,-10.96967359141641,29.7300273532885,16.80593790495149,0
-0.49717602201916233,-0.8499807269237294,0.6631364698837963,13.44626233469193,-21.13386678179461,-34.489720989648006,-5.9582570994492485,3.589320197679527,0
-3.5780262392681927,2.7293501182634405,0.313289547273393,-210.00878229976752,236.83047463526287,-289.2824756332772,-87.61849189295579,-57.28869481158264,1
0.7107808952196191,0.3064859228665866,1.9169716125919847,22.632374378136106,-25.862793158676766,-33.03683932980326,-27.62065876993958,-16.418619531000605,0
0.31471632765985325,0.24994445927513942,2.1618894776060067,-17.91736038195978,-24.308584072976625,-4.137418194752328,17.59328441430892,15.476110738995395,0
2.5208908570511444,2.9609464793189195,3.928562027724647,-288.1575978541672,-206.35283514070187,233.1418114572008,70.15715538835111,60.71575316965217,1
2.1456327699333615,-3.4926621828978233,-0.38976786058885515,223.48630793577888,-255.7608622861514,-207.50781278343388,-45.4009712570869,-61.697236557444846,1
-0.5100566979702958,-0.5641580048844115,1.37185350855075,42.35552150413197,42.388508423773374,45.68071073300051,7.136109296438384,-20.073129772193397,0
2.2690971750731466,-3.284359174481234,2.523519803098676,-272.7915369246828,258.11373139523675,211.70489764103567,-85.36932759107233,-60.40554066375086,1
0.34348972695172786,0.15410329040638304,1.0330950915989254,39.13725475951078,-6.299376810401668,49.30427380482716,-22.782319538600355,13.834813564797344,0
2.181313513895197,2.4022105210930342,0.15097447188324464,-263.06342154326916,284.12298224547976,228.08373672259896,-73.62296387114914,-51.29541648067208,1
-3.000572557552669,-3.139718145112825,3.9895638611205197,251.50403209473308,-234.6402660143333,-288.24193083923905,-81.87824952987144,60.76388359539268,1
-2.1310269179772057,2.118955735318974,0.46277030125642526,-257.08133420989543,-299.38243682158964,-297.8003446936023,-88.99866000604756,52.650634778624614,1
-0.01239034996221866,-0.245394523830736,1.9302289461647133,34.16801228636119,-38.16846529635578,-9.865340782794604,-3.768839716380029,-7.548808117933145,0
-2.0869207186800445,-2.5857041528420037,3.3646707432320615,-274.37695051687473,218.69169091409623,202.1638878987953,66.97614274168271,-81.96261290990344,1
0.43066746320974003,-0.7461279835083738,2.4698696521002512,4.13152716164754,20.691371848022328,38.79545895274042,-25.745843342472632,-9.112582547514616,0
-2.2055430275669092,2.7477445578996,0.4138667786037744,-279.06322373309735,240.70767199468162,250.603953392823,-80.8964546748155,-81.42247842012354,1
-0.3987520434899905,0.18997419822861739,2.1366581389871833,24.231412025381104,8.182229049912657,-6.786928304983462,17.73581747306546,-8.683120108468014,0
-3.096145722576921,3.6246858479468416,2.6628858299077027,279.5060173325119,241.8147492557885,-299.98628488346657,-61.55884561971575,47.47468274070904,1
0.7426963490190857,-0.3762008807482655,2.3306541564781282,4.035887910021543,-18.19926150008846,-36.47652356141977,-10.920254283079448,22.078136730812382,0
-2.299397941254287,2.777302341991221,3.4147654087019026,-272.1726215214423,-204.92742181856755,-205.46262446197068,74.82899583765152,-87.79749505184608,1
-0.6888658370449157,0.20232021890428653,1.955199275271734,35.971010022539346,-31.529947973848905,-44.55572554558801,-25.2671873576103,6.79590025926926,0
0.8316715605084832,-0.3148835465375206,0.8655360403170187,34.59499000974692,-47.1071335065603,8.986623037378308,-18.203772836914737,-11.936067068759716,0
3.2502414929596304,3.4417343052144247,-0.5419956477578207,262.4384705951053,-269.77218095272934,-248.74676294460522,-80.44212684453218,69.75626912274264,1
2.7507727770548382,-2.734869891350246,-0.9726434141090889,224.42625230005365,201.85131988364512,-225.6971064623927,-82.63288984152494,46.69015646312367,1
0.35087669738226634,0.3182052436052094,1.1623981563368386,42.48349444290352,-29.876865652450057,46.36519035196302,-18.331992824311495,-11.625118134500035,0
0.9824340078341967,-0.5302227538803839,0.8563444956993884,-18.381200652242967,33.90620830789743,46.20541942234243,-29.12702944973981,-20.457177232241463,0
3.6323186223843575,2.2257206839636248,3.605859671389471,-212.72008674492773,-222.05389305191602,267.98515177023756,-65.62884565305026,-73.67628142354832,1
-3.0237217314099194,2.2055010077676447,-0.44407797801658844,-215.50101995713473,-226.8935738221671,285.52437006855786,68.51882700602604,83.89038720211161,1
0.8359711207327221,-0.13358252973160312,0.707128544033153,-48.57855606487481,-20.53871792758303,30.681897238515845,23.419554995115128,16.209924138114914,0
-0.32316263756447605,0.2781226502413858,1.492721090472923,-26.302430141252785,32.02493840252397,43.410266048396636,-3.4908102116250745,-10.492224352272103,0
3.8459376357578785,2.899618210864645,-0.4126850052297202,-266.3418383801535,258.3819709529689,278.91736709105743,82.39862031954748,89.47108893389247,1
0.24337688356212595,-0.8396619011004758,2.0621610033846025,-17.16599146644875,-2.857476974067211,45.05292578419318,7.369115054740121,-16.58724014849167,0
-3.007124105923298,-3.4980440878894115,0.006637949489815886,229.93982088559147,267.90380400138014,210.0367415539849,-75.72792205265878,-49.87346779902558,1
-3.5840906550030898,-2.4373382803954136,-0.404213207470139,243.55780086184348,-207.10206150309637,250.09219054959817,-51.883589737684744,-67.51632960393731,1
-0.2921423433184003,-0.555595504578094,1.0092332600329847,-28.21512856613856,20.904159340983924,-12.062769615835379,-1.537241338717294,15.263413040351708,0
-2.885566144615325,-2.8081376056620737,-0.14063358736677856,239.45665707765963,-267.9634955825883,204.41193702916922,-72.40058267205981,68.85853738954327,1
3.9511882344002363,-2.935352956238014,2.603048272591242,-244.12832783875345,226.2095804060283,275.9088057946759,-65.0300931040626,56.80852712529831,1
0.651618586716854,-0.26395422471408425,1.4313369953947297,19.29431378001523,24.515065490836633,38.80054082037809,-10.470476953376998,-28.900389365383916,0
-3.6010068557847683,-3.102666894017164,2.5644419182251736,285.9353517456651,218.41139691442788,-230.69262531408606,70.7203364764821,77.5872396544045,1
-0.6200770367165687,0.8469135027650159,0.7670148953237577,-9.4235888230222,-42.044725811469206,-31.178381262517284,8.526782061205743,-14.666571391494056,0
-0.8489049419239314,0.9580726671679327,1.9928312863469126,-49.49413725296168,-3.6461142271095994,32.10888829541945,0.46399776690401495,-2.482601587656305,0
-2.56528658878481,2.6702208999140735,3.538727784503516,-292.4441057625965,-263.0478844666658,269.67454197516923,89.0157736725993,55.83595581609825,1
0.18354786765099806,-0.18243964331648033,2.18311513533758,40.19872830018791,-10.566659743808415,-12.104871366194146,-22.178478950782356,14.613068914565538,0
-3.6544322571242893,-2.867138359694846,-0.046441089856528395,264.62825849888344,-245.20270526179712,295.24918594748743,60.412009902702835,54.69255585134875,1
2.0099299676730475,3.4848429874315068,2.683931296919208,229.6564891572484,-251.71496238531432,-201.3506847259352,66.52938932691929,-59.76674414411831,1
-2.9011798715576345,2.8878547019970444,-0.364602297072381,-289.7428517906273,-230.20219875018165,-267.1667784876129,64.10999950537172,-47.483620226021195,1
-2.8454833770858308,2.510467054911945,3.328889138298574,-203.8239250557698,225.9896976354039,-233.55847278143233,-73.08866922820926,88.04644537732149,1
0.673896154848421,-0.0483320759805439,2.395201204435949,27.300893790520036,21.88937045765354,-39.32524235829293,12.903770688452092,14.734183740972775,0
-0.9130337969220945,0.8005781851477929,2.247440066254713,32.27556946098869,-27.301291482376033,7.9004856448962855,23.7682178645941,18.984180903701933,0
0.5633224058090271,0.7510894335498206,0.8072246345054754,-32.72768249005472,-13.039209389627459,-16.419348051724626,-8.444498135138534,-0.716751208495964,0
-3.6338366197930183,2.732713706782797,-0.18008854309049038,-276.86435792710125,235.06861459406872,-214.07090138907307,74.5761382007408,77.55996203688045,1
-3.896827535296194,3.315170995312484,3.160229056201045,248.14634234908306,-265.1972938044871,-280.6876217018708,-80.92674307090218,-50.31898030978897,1
3.816773362907389,3.552398161960264,-0.6202828036193401,205.99886720727798,278.52493930559274,268.19228560197894,80.47129242363116,-61.87931906846147,1
3.776518438780079,3.444471170501719,-0.33966905767435773,288.4099901858755,204.5119393479579,257.29543317819383,66.68646865518497,74.0197251738049,1
3.4953382317012274,2.2509012369720045,-0.8937785126723181,-233.9968172300092,-212.62510599992856,253.2862608266212,-78.31789412096546,53.04903459190859,1
-2.9722667886392338,2.10196403169775,0.4550933125509149,-297.1576267258936,256.3597914291848,-232.3221596821751,80.41673024779593,-50.5919941320963,1
2.3838551787721185,3.309391383337106,3.8954947863337814,-268.1360180647576,-253.31501360036876,-274.7806878308321,63.7655098098378,83.40648129174164,1
2.0056559365156272,2.761007027277211,3.8755450260190005,-288.9151500964332,249.18905771645052,281.486504245363,74.95629670816089,81.4396755859147,1
0.6915914547293296,0.895084484410003,2.0242686449613227,39.593384404473284,19.238557991685624,-8.64120302567325,0.6113141383490728,4.666214925548253,0
2.6437186223538207,2.080963174429177,-0.4661450393948807,-262.8490989464181,-234.6823922501026,291.2777025490684,-48.7676404647897,-89.17670052363218,1
3.331124653656767,-2.924869403188265,-0.3342168563860133,-219.56377127076783,288.33278207278204,234.0169694781022,-73.46992657352908,89.74399644810754,1
-0.7152078716590131,0.19962800207292086,0.7517102559529159,36.30864262603541,21.676015517973212,-32.635180519422946,22.17713597909259,-8.737623745894439,0
-2.4619003648138396,3.632084862289786,-0.8967564688603753,-274.0116652253171,-238.35907850916027,-299.6909877739693,-71.71099635376045,-88.6381045279463,1
-0.7257265407128881,0.03595169514122931,1.3956923728947732,42.29301875205924,3.031592036931521,13.630232391292893,4.278333900215472,12.537410801127926,0
-0.8211949118196511,-0.054716448215595515,1.58380623589744,26.963576579091978,36.90878810162002,-45.16526332460468,20.742953602474508,-19.959470517119033,0
0.2510039905168797,0.2927949358624531,1.3422834399363368,48.444427853907925,-4.429459601558918,38.20072939066236,-20.910194890839193,22.229373083072865,0
-2.8229458666242815,-3.7417978705788233,-0.988880332384496,249.4930946998079,-219.52420160517985,299.0166847609379,-57.52318885585707,-59.792658953221064,1
0.9826171247887052,-0.9832835930320951,1.65812774172573,18.133880721555457,-15.894865859584051,2.42611766013637,-17.547350532947934,28.883325091179145,0
3.5731911342096128,3.006633843510518,-0.07868887927769319,-270.6803998291861,-261.4796386572847,-222.055655869462,53.43861044823522,82.25483781102376,1
0.9096531420050666,-0.1871316154903122,1.3678853672176583,7.982439173217017,-28.069103127792317,39.84225789795369,8.580503431458652,1.4905329255614745,0
0.9389395372020226,-0.7192604908004043,1.9178725042836196,-26.217769435396665,-20.150910385545483,-42.20125571056038,23.882223925552864,-24.608315119742567,0
-2.6827629226633327,-3.372614866264483,2.623843116130779,-296.13429819095296,-283.2544855940348,-288.20802164832503,72.22089065642302,56.170422088827515,1
3.8035411007469664,-2.383360776582154,3.755578352611696,276.640322528548,-202.96174034469738,270.0447334740285,71.88695506745549,53.20950600315921,1
2.491405929928474,-3.1681796607640598,3.3733738775479103,292.84969807682745,-251.5273869545726,-252.60587415234522,-86.33743103128114,-65.81224893371524,1
-0.4268031003184034,-0.7919053807480756,1.190153906782011,49.564223202303126,-0.8788213175411883,-10.904839948117662,-18.72440983513472,-25.773190406186792,0
0.7610224488955986,0.467789089463424,0.9698031005461663,-45.66530402528451,-15.448439963132522,31.76273470474638,-2.301740159692404,-25.59928958534217,0
0.6089271921930375,-0.23175837329716797,1.1572133959145474,-23.027463987105,9.409502379607794,-47.87649066473314,1.265355197745805,-4.744666576927159,0
2.686276625420162,3.3330562543615794,3.3634368711283873,-283.25289343421684,-287.98541930748485,249.94654479946573,-68.57080132252605,60.94413784974193,1
0.506873653059408,0.506807071806556,0.8217006933542614,-40.3070917593692,-38.92973828250219,25.26425536923506,-24.972000700892742,-3.944213946387478,0
-0.09147260509396693,0.7095782559762696,0.8760996928410709,-25.39039745881867,10.260422367105761,19.463234946731518,-3.0516683123469193,21.365918817783182,0
-0.6710161718422591,-0.46940412179481683,0.6737884475017473,39.60771584142287,-24.313331376163163,48.40958142704788,25.71387183289564,15.072727984987445,0
-3.202510323528273,-3.4051682389912745,3.065657671332669,-268.56339132800196,296.6402546246989,258.5736260274084,46.192957296291425,-70.86025175562546,1
3.81375504494455,2.769908539400773,0.2808101548236288,228.42520261291867,283.7255916570397,208.43509597382393,47.693336254910726,78.31586123728741,1
-0.8340479765062176,0.49188114069561895,2.0134567709265268,-38.49570983937048,-27.693927874595392,-28.282299916971887,-13.98754793927342,11.155426910305195,0
3.653909475880697,-3.5074899896128464,2.77630026004001,259.0863749585711,294.2104523552654,-224.09472436469215,-52.864578476085505,-81.52240449310048,1
0.34529793464626746,0.941302691813841,0.8088553995099579,49.04339635520655,-23.570004619772455,-49.12652425380979,-0.03361911661782102,-29.360831141820306,0
2.1780137809199847,3.197440106663567,-0.44631231506632085,215.3008048919634,-276.74003548867387,234.66075009533898,75.25062837178942,63.365723772745156,1
-2.996152987806114,-2.9927186044356615,-0.34303992873251343,210.14747739401224,-231.58785606774336,201.91384809097468,48.12030653156446,-74.04988257907796,1
0.3595707746247143,-0.30639466346207267,0.6743866615164362,-7.354718397474549,22.213787826420216,27.00211571069495,12.495225402411208,18.857044927446594,0
-0.8955095731368363,0.22681988003440656,2.430433182854302,-37.606474499176024,-28.408611155473118,34.89929856747287,2.227957814671342,16.720798667659928,0
-0.47851288745595766,0.215633168834801,1.5210921527781527,-11.031412146548348,-19.212733165377603,10.686407812084873,3.534916319637361,11.935874249870729,0
0.9679778903993459,0.5676063896272867,1.5858009362089613,49.96872676259338,48.52311005362576,-17.632540519192865,-11.129161054040797,-22.20873578466668,0
2.077047658259758,-3.082821162880694,2.6512953267669923,-231.59990754748253,225.5829065276059,-244.61321802305486,-68.91594315612956,-67.039050630715,1
0.803536572573452,-0.9543764852846208,1.4363289470446805,20.780520283050237,-34.216896614338744,-0.43828239929266744,17.165780959295923,27.020853240289753,0
3.426580286565451,-3.8764686744267878,3.564129761860121,-282.2907395764481,239.67455123632766,-274.88365697234696,-77.43023933799917,53.279826325055545,1
0.2570294385741463,0.12149031896630369,2.4824829244435267,37.14598652397537,-42.60738254673376,-3.771518980354024,-21.10880917590666,26.47999018047578,0
-2.9112738706029173,-3.489357657427774,3.5544694826165086,-221.24640204973517,281.16863834274034,236.28108499110925,72.98751868198153,-62.97937979730212,1
0.4167720427256725,0.8385300732184835,0.9336098323587771,-0.29813756790325385,-10.385483950493423,-49.58896436489781,15.858593079523054,14.513113124697881,0
-2.6578924363797074,-3.483550002449717,3.671701867081178,277.86743843224053,252.4185153750886,-267.20234581854953,-59.10927890944469,-80.3126601885918,1
0.38688820471909935,-0.29587655697551685,1.6201114827143313,-44.794471594816066,24.628024515432116,42.481871491871786,-8.573285915259202,-25.22121595083738,0
0.7682435224635211,0.13216785914513562,2.0091531916806677,25.7505651840889,-29.965442981628588,-22.916671258791798,-0.28963791752581614,25.49609458895233,0
0.3397453742997705,-0.43088649957055347,1.0700234282456127,16.003468685867915,16.576258893569957,37.26719449529308,27.427021348692705,25.44078081585299,0
2.7821227957936356,2.034405384919424,2.8051421741188136,-238.3492353105491,-226.050934300424,226.33121309071558,-78.43347074226868,87.75772065452671,1
2.8451363976252066,3.6653771514518714,0.49877883015033353,-253.83872468871684,-210.64660208710893,-258.1336776819121,70.74737223094363,60.65259617133294,1
-0.35110971558831605,-0.7443733295165427,1.969616241302931,40.133238012553846,30.282056127821818,22.901425129545316,-28.392891657044032,-26.66308888664139,0
-3.6576369198078806,2.162018809773497,3.839867570048886,-230.2061269018247,-282.97712896381404,296.5973302896475,88.8881590881839,82.4859275431208,1
2.8656220818700566,2.9897120954115985,-0.34510142718862447,-201.85461738028368,272.56908500893667,265.76177112989893,-77.81304890332514,-63.849338965887426,1
-3.1442746110818187,3.4442537306521412,3.4298701914067626,201.61180740834277,-277.48394116421395,-289.68382031801343,60.83207237140329,-65.0014812854893,1
0.6574095163758236,0.23601017010174896,0.8251449263247708,-21.75549646337015,23.122381737834473,-42.492638237639014,27.391209269432878,-2.1825655202343874,0
0.1469209461702865,-0.24140835271308525,1.1771625532547332,10.472118049074453,-25.469947139677085,-21.75368653748645,21.249820483222436,-4.667711505506272,0
0.3659567246398354,-0.7454640767932093,1.596000239443624,43.08205464214109,26.475521406461155,22.069761075568067,-17.582426900704288,-25.959718825386012,0
0.44724310843336834,0.9446984457722469,1.1673514323174257,10.887372805277373,37.448090190722795,-14.389560144929703,-16.36004398693438,27.946410306574343,0
-0.6162214587489188,0.7903395182985054,1.1638958138694686,20.730428364066313,46.07664816909424,11.02915831151148,19.29099789522457,-26.206100272992074,0
0.41704865902345123,-0.5757059743472803,0.5961466138376783,-16.85481696543603,26.49845227382778,-41.88541621922891,20.66576585935274,-5.808024569277592,0
-3.207577576210966,3.079443981128118,0.16103642878553326,296.59410814535227,232.353963344882,-258.176841412417,63.40159096415333,58.314685893812126,1
-0.5676793935472166,-0.588413894235865,1.6421245048005977,32.475050271911385,19.34216734308758,-25.993914397519248,-12.71493894138385,21.346964741964598,0
3.228962964427864,3.068647787274786,-0.7825360703943489,-288.0959667961953,286.67470052975045,-279.3958585005098,60.614463489276474,89.18768786617456,1
-2.6706213191366888,-3.2367168260110484,3.0143104258039326,223.04225645793147,232.2431380251033,252.91000998976443,46.87906716778959,78.85492846225085,1
2.517754849902702,-2.777527452212748,0.2767123653018084,-269.4345684248796,263.21025739665583,210.79976664721448,-70.62313576875232,-56.713850601102635,1
-3.747329856621537,-2.0652380323112514,-0.3062094490540519,-240.07934813364562,-204.7736965596907,279.70694287971867,53.223965609033364,73.69205467743286,1
-2.47050220877183,-2.783534447387458,-0.43838129380689383,244.25257494273166,282.29012339047944,-269.08994214345086,52.1628410912855,-47.07791848448597,1
-2.340469584482519,-2.519608271006418,0.10617038066979112,-251.89368497698277,214.5485562937289,-264.1856867971248,56.93506401917172,-76.12512825138347,1
0.2672738280216529,0.11061070157899255,0.924210067819919,11.179036740088755,0.5260338365958646,-3.44037493775712,18.176975080381006,24.740953133901854,0
0.4044988275228645,0.5524549769064568,1.6177434524349115,-11.72825300313258,29.955081583946793,-45.92378633143582,-11.54752598655639,-0.9904513205672281,0
3.6557907828184635,3.181459029234541,-0.2786846965377987,-241.0081724594285,-237.81180479587837,-269.4897077244484,76.57999845006671,82.82257240357166,1
3.747381556463882,2.057462843226287,3.3444097944389672,298.16535775579825,-280.93896157506856,297.83880016647663,-87.79982049868781,47.13082307340462,1
-0.12864613616224618,0.9214873877437753,1.524810150514049,-46.96061347329687,-4.082594046001212,-26.61361609452193,18.827110655167857,13.631095344085438,0
-0.32124398091026163,0.24870266906090732,1.3769955264777185,27.276496039287963,40.93348149233891,-12.511758390181605,14.365422503018735,19.632706509143105,0
-0.38733908869114053,0.5046366292549453,1.6653825282668304,30.43295218405507,48.23878348170416,-12.202662210635197,2.490941264654438,-2.4433835230588627,0
-0.7347340348213787,0.04132852239404605,1.7043696395280696,-36.392365666490676,28.823775199873495,-20.315798585468904,-23.240328166444336,-27.275253854245037,0
0.4541684904044583,0.2369286311416967,1.565595419368545,-21.469194142406465,-36.83021751269084,43.34075658172284,-10.554386023838717,-9.598688517991668,0
0.08635991276174582,0.6020198802506622,2.438895027094537,-29.22595160332232,43.80514026135005,43.653898712178645,-8.094922251251042,10.691692807214366,0
2.904579016536605,3.397317222670514,3.5951615787033475,215.01242787976727,276.74945762161474,234.3343989927576,76.04086134987448,-51.50808422553165,1
0.09270927903117387,-0.6003768433476111,1.590623270690805,2.893761560387887,-18.97925395756177,-31.907820557193457,10.12980455737631,27.169787568223725,0
2.868086614172314,2.110834405212356,3.708401596496513,288.8242338889251,-222.8228715895818,-225.89495429007047,79.33331881457397,56.12695918943446,1
-2.4973078310096772,-3.3075644118085763,-0.7045903830013214,262.0971209655221,-226.5786842068247,-292.8255451207236,-88.47062828276789,72.43733134107886,1
-0.6863590010550442,-0.17048602024304182,0.6643150386762844,-38.052601958604285,32.37349383397276,5.062543361003556,2.4880051813386714,24.560233670074027,0
3.420443814661613,-3.6936926921767874,0.3131741090676188,-216.98847954535916,-210.76135897326975,252.5611224445306,55.07792192220079,66.48911193414627,1
-0.4526598801942039,-0.2653669154470297,2.036485794762621,15.528159546861374,47.28061592067097,23.493451111801477,-8.425729028992585,-18.220318065685426,0
3.834977005089062,2.1417301902137384,3.67980143126369,226.75807734420653,224.87351472646048,293.76809347501865,-65.43150884025003,-45.23943516117949,1
-0.953634326974609,-0.6358306930909188,1.3379215094058856,-15.623506660955812,-14.525553319358572,43.76074007503668,-7.715674496581805,4.800445302340542,0
3.5408189362158486,-3.8549719292252176,-0.5357071635222612,-213.85087842213719,293.8474261478117,-286.14363913839713,-55.50630930868842,-70.27664402857498,1
2.234015100092426,-3.870436342216456,-0.8191405698686142,-242.12318758984281,-267.41280560125534,-233.53208691830463,54.525883228077674,-67.69154370608848,1
-0.28850963080509584,0.6020855275553714,1.9711285961477907,-47.98208541267176,-20.06182157171582,4.39570593016262,12.058046911511084,27.594745021671706,0
-0.31171933596471124,0.09423022159427719,1.631397076852543,34.43546299782406,-6.923575498192612,-33.76875264165994,10.67643110753093,-18.240247861033,0
3.0597888598677576,-3.7866775801620403,3.3081112786978157,288.8407446535669,-298.58226780411235,-200.7057268687463,-88.6853611355113,-58.10942188851767,1
2.7881736701849866,3.6636441787395393,3.86325073769515,-294.01007957570465,-243.63901856259804,235.56627044539394,50.30513849327461,45.53749332971137,1
-2.558407859927054,3.403333587608982,2.803205336381819,296.17570705638946,265.19601861083015,228.74242740164726,-58.85628917238979,82.34904177635391,1
3.2388865076073943,-2.1103642482429272,-0.45017301611462135,-273.504852870703,-242.78679069540158,-202.1196534563066,-76.54087955332474,49.683228048874106,1
-3.9006676044957365,2.693822672756885,3.2523709149000544,-298.9646955247866,272.2349403113336,216.26055904836159,-76.20097035887028,69.9568637939998,1
-3.2740418264026117,-3.7184365326299185,0.46913563744432163,219.53450624477335,-270.80230560520096,263.8790567372674,-46.74178158132531,76.60765582741648,1
-2.382120968128131,-3.722342082597392,2.870447947359532,-244.40936152340575,-291.43447116878275,-215.99710339948206,-46.4146349244963,70.10253992713606,1
-0.8152066665156246,0.40169959014382406,2.196569431567008,37.84505337889672,-35.60808775816088,11.738620230843765,-0.584007002122565,-0.907200025846393,0
-2.77367413269302,2.1771539655407492,0.3991875788451025,244.43306312983583,-230.14224206988942,266.76319992477875,-83.22199082450969,81.2405279748572,1
0.014792195666797348,-0.7490772730304229,2.4800108562036423,-26.155571819241118,42.552019638413796,-19.59241155091178,-6.579854158040565,2.416765107729269,0
-0.8082684592779061,0.3905311995908707,0.7256188037996019,-14.83667194735888,-1.6164108636967853,-5.678924809464981,-28.97996992445627,11.208127262970486,0
-0.842922660436114,-0.7293937331368681,1.7393952890340867,18.300575992596123,-28.35501803174192,24.52224380224976,23.49002958730133,-2.5014333682486907,0
-0.38989994541742057,0.03929940166020551,1.6852386066820617,25.65153381785008,46.45723230169558,-28.9216673926289,26.58620393792964,-11.689241943892899,0
-2.386488244778267,2.347135475861215,2.663978013369156,-277.73412422323145,-248.6577228806249,210.04574147074442,66.09830986956322,-55.43027219322205,1
0.10227929417337123,0.9868014799574036,1.8430203329572026,17.92429038185938,-21.37893246943019,-14.373623174083782,-17.47069739780877,-2.4343877309900464,0
0.014997532145558878,0.19402883619207412,1.6118123193714482,-21.860825927510763,-20.688018040243662,8.725519115237212,-8.219097828980956,-14.12469887922377,0
3.1247034662759168,2.5920538210364947,3.6155749521068112,-283.2207778753565,-261.54403134723503,203.90392208774807,-52.144907173784354,-68.86686609998067,1
-3.004225153942845,-2.1040163797917275,2.8689371063575764,-277.7812844252216,202.44834483155927,231.46067227210457,-80.85281989398452,-84.49801339308922,1
0.37494131331292113,-0.6124710223251133,1.9929460659312754,-38.62239090308466,8.54273827594887,34.634907558562915,16.90834556786625,-6.31508298836718,0
-3.4354890016825914,2.48077817070501,-0.4353480841744004,270.49083392472363,-297.72514202111313,296.757834176806,-74.31016510700778,77.85621680626014,1
0.5559863351053409,-0.43283487938942766,1.7475502050388252,-16.635937259708754,-10.200954735109704,8.586973971744015,-19.9905060519338,-29.714337679735486,0
0.8405849968780583,-0.8948821789082779,1.6358883504094126,26.987764560356254,-29.49232759189333,21.755291957589023,-25.726660404267662,9.789662571293022,0
-3.817152068787032,-3.5261439505736956,3.6012546610703495,258.1820956257792,-278.3857566424574,-216.11592826703395,73.14817565103348,-54.076317232076526,1
0.01904232090739777,-0.6258258078606402,1.875769329682162,35.274460804109026,-36.886148245035,-49.10510140949407,-5.753991323946437,13.367512697288923,0
-0.11053400441583894,0.15003452424370156,0.7666072190913729,25.925333412476874,18.69720406263997,15.186494688166746,23.36195454763522,-26.6699372857135,0
3.054409401044918,-2.132249989953093,-0.8569597662291053,-294.0386215905789,240.74308232733546,290.4552247217858,-83.99305017180157,-45.41926385815398,1
3.3289401326582864,-2.1064766743384955,-0.9447992680882833,206.97004876692077,-261.3048320148249,-258.77200208558986,-45.16262432997985,-46.05859690232056,1
-2.5037462750258666,3.0572728494219166,3.1816847213244195,296.2156849688241,-297.73664453084245,259.18331910435506,75.13364327926726,-87.09312663653057,1
0.48370384720245463,-0.2828324928549226,2.057437153290856,34.62080732097428,-40.755352795619075,-26.70857301647406,8.836977875098839,-25.103926692378252,0
0.9450879353739035,-0.6903422961152725,1.0641364015652912,19.624658906234416,-47.55423036064942,44.90067414577919,-9.721625089499337,18.901682926999747,0
3.8978567156848447,-3.251121834860639,0.2701617170848869,-280.57978817893036,241.87596078175613,235.51769667509143,-88.55041474460525,-81.58880163542365,1
2.4926707321545987,2.1971996355556063,-0.9739431157808356,287.65668211471115,264.54419079171356,258.4794458456578,56.33796624627266,48.59758268630746,1
0.0989276742818681,0.9986163101707146,1.1835610908446894,11.28842458449234,-10.698144436414012,-44.82855235537841,1.3225072169225456,-24.606831281989518,0
3.6408057211651217,2.3040764407133243,0.04192761812888013,-253.22436277677548,-288.5401139532445,234.2466306386242,-76.24342175357208,-87.14990826383143,1
-3.1690485503511923,2.3596642091492157,3.4813399853927076,-211.39816371905385,-240.16455935615016,261.25360481399457,59.727116614101064,66.41856239608,1
-3.0324444605121106,-2.9224065601983824,-0.7360321823993106,246.65937199135544,-281.5031555323325,-203.19611362710566,-67.96325267877741,-71.87947777199,1
3.6372935045803176,3.4174213317086766,-0.9101119722249866,-224.133163428782,-221.9177903682803,-241.8114521216246,85.74031878656362,-51.21732004080058,1
-0.8834531185797032,-0.32519228876718986,1.8564140604230384,10.049770688820026,47.95744634461654,31.280881887637776,11.438465720397375,16.798063628020863,0
0.3745927109203646,-0.011122512436198884,1.5813625275170755,-0.5781966581466449,-32.286931486865655,26.923398476767105,23.948551576509942,5.32755280485209,0
-2.806594015541953,3.776592992333529,3.8972779592638105,237.33416160443457,-254.41286410309644,-227.2527515337787,-84.13096138322021,-48.514257464701224,1
0.10558907117975314,-0.9520156609645696,1.1762972485050378,21.264339242853424,10.97712469051013,-24.22544024398826,-20.370198384103432,-13.680579943922012,0
-0.5612583303805803,-0.0880943807250889,0.8859773609260861,15.810824032245662,38.29501621183252,-25.4018935850162,11.243060098594839,22.975818140049462,0
3.7133820400916564,2.8292215658824746,3.89431383916906,-241.79299622315187,-242.42263221854438,287.757953338119,-50.602068513137944,83.74757817171178,1
0.509830108950122,0.5952987942446522,1.7665698187157277,-7.21296548603366,6.1757025872759,-30.824389127991346,-22.111558279574353,-10.050808391598206,0
-3.398158329623877,2.1974441506724967,-0.31584688277187545,223.85867379417496,-245.65994251720636,-220.9903772720691,73.41442336135886,-60.78209566456131,1
-2.030758021402791,3.4328534605235577,3.663578904410925,-274.14328295878016,240.65516001004886,261.9381244330847,-79.5367731901341,-53.30130801116497,1
3.8126831530387797,-3.25708677152683,2.6664670768375127,259.8068894762779,208.85455959970082,288.2734219385574,63.15183951948823,-70.40189099515943,1
0.33821887727153177,-0.16457399969679232,1.371027782709381,45.445974458906846,19.544148255289343,-23.7826925316457,17.373958474674097,29.725611006974894,0
-2.93491346121369,3.0364671521851685,-0.8634221893335077,235.42519890044537,-211.46514752246117,-292.5343655151937,57.32775127812496,74.19993790821263,1
0.5516488416932577,0.8989855732340739,2.256819036815181,-25.113963382691406,0.49215989291483453,7.96648676128342,8.052656775114684,-26.75222185322903,0
0.3213890397653649,-0.9114100159997345,2.315550879073842,-47.39256543269475,22.46338138950992,-21.01816501000444,14.160495012640183,7.701841477490291,0
3.9995810963403966,-3.593490762880557,-0.7083481138446616,-209.78568821407114,204.35740022250206,-265.0112447038048,-51.80341577785006,-47.52197873577349,1
0.6540540550785896,-0.5243480175224959,1.3151114184114072,-21.89990702987331,-14.414333739575738,28.642100693422137,26.15937332696567,7.654972323204454,0
-0.9510853865574393,0.7108610776876176,1.8790423572261226,-47.631579255126766,-14.899232572504296,-29.280454068510807,-18.41281828392696,23.438981329370478,0
-0.2938100875834573,0.5364355706145127,1.6936173755183501,-17.02779673385824,-42.07948819312087,-36.15732113466935,-27.850796733289254,21.714843090426378,0
-0.6070240863928169,0.4151089423448011,2.322163722933901,45.45132392609034,7.142093279139196,-16.040700841082398,27.79087302545154,-12.276933933797398,0
0.7055932981532462,0.6072057198606418,1.1553870195729175,30.421955948392608,-23.240325838081354,-36.26652748524067,4.996709632964766,17.08603633623889,0
-0.34142354751746207,0.7599931449987942,1.65357887376887,18.046404420214273,22.722847218818004,-14.930599549658737,15.033260105016296,26.981615137454554,0
3.4940605513785417,-2.2795837605273475,-0.7898488924271104,-258.91583383175237,292.6094704038911,260.4683004115235,71.42139476393264,-80.42351280174563,1
0.21364271476321828,0.9807883122811478,2.3439682372279416,-26.786392990773557,-29.95052002240651,-48.44093630666272,10.538668510364808,-28.66693076960303,0
-0.04162788884851487,-0.4309630669879627,0.8508732953024862,-19.943355298439037,-2.4285762894865712,-39.24392600241816,-2.31466244046592,2.8557856173677862,0
-3.287279403576955,2.2243994497510844,-0.8139543194936932,-287.79471385599743,232.97356615944778,-295.28811396602146,68.0129918615817,-54.28261436489809,1
3.4291819547598466,-2.3076124916380105,-0.9406863219499809,262.7640357598016,216.0091433600473,-288.0013472695819,74.91873253128607,50.09039504208512,1
0.04972642826738549,-0.009522916163116069,0.6302275613808634,36.72395133026042,-15.59786196369246,44.842945313258525,-27.282533861173768,3.1193568338530753,0
-0.2646198731037337,0.04944981837828166,1.5411389051618491,-23.950838677958508,-40.264692458907106,12.378480439632611,16.518432158865565,-1.5091552606132943,0
-3.9877484006884365,-2.8988296650495795,3.5400115777574084,-240.97963041371017,241.27952238200734,282.1421573602554,55.944839400365076,-75.44165645833897,1
0.011437154204295696,-0.6799752805910015,2.020530444512513,-44.80019959216687,-16.43212328113625,44.711995052615535,-10.831971369855857,-28.676305294968245,0
-0.9214426375920588,-0.17654020123654823,1.1927248745285248,44.36509293160998,28.356698949029976,49.404847648727966,4.9898671474054765,21.282704225656943,0
2.1957814542464584,-2.212520529929387,3.836626453870911,264.61654256942757,-263.43756728194546,204.46620627429505,66.747061447154,-48.23538638460132,1
2.4550202414682403,2.6050814277206475,3.4919086852454897,-248.85867980210094,-288.70223219636904,-202.82230661216116,-85.19427690476722,-62.67041152762691,1
-3.050881853356746,2.7748757453892186,2.50674734358336,249.09086906051476,-280.1941256681641,258.4756569103174,-57.79569346168362,84.11731322314438,1
-2.7423113648975352,3.7318339487255647,3.0410012139932574,288.5643164319037,241.77660951862052,-220.86473252776455,54.87016933724069,53.421354404681914,1
-0.4986642867277742,-0.8084003544700942,1.8152302118994323,-22.62844988794469,48.70498989690755,18.421057875058267,-14.090228940201497,1.676430336857429,0
-0.44283391631137614,0.07962690357744906,1.8811867794666428,16.80005466677757,19.326713627877837,0.36910711567416143,22.762479527742286,18.75791082723422,0
-0.8081242533280588,0.9582638253622033,2.2559570581696704,-19.75112842502168,-1.4201587756553664,41.01602636913164,-4.19049776152,-17.76879474688593,0
2.401019963083278,2.4502701250822843,0.12143989114297371,210.37433397962607,219.1439057136531,218.7865092591302,-78.40097026335442,50.64930906211818,1
0.12821823687114486,-0.9510772980070967,1.1677082317379561,19.452964524235796,-42.29214957268189,-15.828126444882251,-16.675577839307927,16.475963561955048,0
2.8711281723993833,-3.534347395449651,-0.670045797120454,290.812537164824,-207.14693705412716,-266.3905167019943,-49.04921644200212,-87.59388592771847,1
-0.30794044344098004,-0.24053694814862658,0.556934843282801,-31.385969562889095,-46.86721979992045,18.38219151632714,17.07993934777167,-15.607524810292697,0
-2.1586350992722028,-2.9946479746776187,3.848494775591006,-290.9632516214189,-243.75833947872542,223.3060015721059,-67.73563479920216,89.554924417686,1
3.8643688671107306,3.8609058538288394,0.20320245708165086,215.40360103079118,205.6908567960498,-237.30663097030322,-77.7221707661548,-76.39162594099494,1
-3.961773058700527,2.9514553161058874,3.042684059806009,244.7544999643193,248.49485001839253,276.2297905588774,45.0290945606248,-73.12273763691158,1
-0.8242392224603738,0.8928623422507271,0.5878607752733875,22.999690751319662,-39.79194869647337,18.27853445721182,22.039081280717298,-25.835256719865576,0
0.039534774205937984,-0.3869635233843616,1.6599342312077232,4.213324754106765,-11.374615878529013,-37.011331995324504,-8.663138757070119,-20.337292038415583,0
0.27893357724922874,-0.4690883349197832,1.152753121539688,-1.891450806069372,46.769084454285775,40.53062799226932,-16.29406289897821,-18.26011018185789,0
0.3142538483935198,-0.016653801977704275,2.273834536394818,-44.43826604301939,42.688862892797715,-37.0680503733909,-10.972999044558577,-21.563555217953457,0
-0.8410676823153509,-0.34149373362322066,1.8618489730929755,-17.598816353803294,39.75226103305822,48.051833623910184,17.86588318035701,10.138817678977055,0
-0.8833213041530443,-0.36128656925643154,2.4144674734523726,-11.181893281530876,-20.920433236189385,34.38558211207669,-11.630291775162043,-16.636975217967525,0
0.2924258617059108,-0.8633815141393308,2.2355464941844634,39.38695495987136,45.12303871180181,-1.1256657740551432,13.483933774473343,10.528513100860643,0
-3.1893417617824253,2.432471751194595,0.15517435292623638,-207.4486434544752,-232.33624034961227,-247.15221376871813,89.32805305212015,-87.1422453407707,1
0.057207628906806196,-0.5097044535503488,2.2432855921715467,-15.188924873351908,16.468804279347808,0.4024276780807199,-15.249287683350515,16.7938834955539,0
2.4456636769750464,-2.437564874314159,3.5958144309508073,288.39925011964203,-272.6520979915651,218.6370035168686,70.48631412769635,-57.81351857062527,1
3.9625742531192216,2.09907660536415,3.7668906979104353,251.49337168528206,226.8289555173515,252.73382832654562,-66.76300112231402,-52.415082915499696,1
-0.6122832497149411,-0.1069898468902808,1.5843484582840217,-43.68790995581486,-10.463188202275596,34.452087389142534,-13.632996690592464,18.863077740130194,0
3.205759406956858,-2.4664748219872155,3.5543835144307,245.55054889171052,264.5643640873199,240.3237523096908,-71.76733005011351,67.64029893649557,1
0.739767537960049,-0.6480479485959789,1.5634938136909617,-32.63747812919845,3.1390980299518603,17.34133711348504,1.4696653979783356,-5.124700445393856,0
-0.5213683743658681,0.13534571418993524,2.1751741939242457,34.96642815387756,-43.059491213852475,-44.377658263739896,19.392045651538865,7.078193433282948,0
-3.3786431163429818,-3.2226413446803175,-0.15041053180388642,-241.26597299594013,-210.42049935932954,223.5884284605875,67.62901886622761,52.54856242434775,1
-0.1761253759087953,-0.8852943179442789,0.6188412221667834,42.50218232802263,27.54092056003978,-33.42866352525266,-18.1278826030589,12.168343102351166,0
3.7691397515207647,-3.379622225601702,3.5627062865725225,-210.50092475056005,-279.8861012119869,-283.04866196388895,57.684174146075904,45.53098548904099,1
0.6668526608670589,-0.12766251883237567,1.4317351102153693,-32.846800819816146,38.17162554167547,-35.07475838694643,17.653891732085853,1.2744147605406866,0
-3.183206764223975,2.2968363180717235,-0.48063769173296045,-204.5667518168184,261.7515172039263,-288.97593972308766,-52.90408947400983,-89.69535322093016,1
2.562643970263553,-2.64135874349913,-0.6844823664525048,-291.39889385116425,217.95372338229342,216.46201489596262,-54.090906069061155,-89.8146477969958,1
-3.111000865373478,2.5540260309643252,2.5423925954738564,-220.73436910537845,278.63897665444415,-242.50151448570085,53.385901722281524,53.1543883186454,1
-0.4638215810451114,-0.3409885381065474,1.6065244273256185,9.312940314244912,31.598074002500084,47.487628938244555,10.41674878996718,-8.325429726330647,0
3.5991083661812793,-3.1316914900133077,2.814292462748465,-246.07556790600643,-224.99454696096603,234.42151334254487,49.76270596214703,-45.81477412187048,1
3.3237712863604827,3.9712833781732515,-0.4911951600394604,-246.23504913792988,293.7901865806671,240.71030830087088,82.91823446768922,-86.42730076762331,1
0.06681734012350504,-0.8586944450898739,2.197921725951997,-7.674361263798865,-33.05374491414943,36.744967195061676,-27.000753292102086,-22.11252004488433,0
0.7052254867571524,0.29747657351926393,2.400970315914294,-27.353949516635556,49.92771196311074,19.62469142664446,2.0843141203115323,24.471303757033546,0
-0.9883331597259413,-0.15669989988021227,0.5152464355653799,-17.169918931724673,-32.49087184096118,9.345882073149546,-10.8232272712679,22.28256404152092,0
3.665892336014813,3.0904290106897445,0.3777397331757819,259.70592097010535,227.5538415325924,292.6639975251463,-75.52568777445651,51.15083110272747,1
2.6648213484930143,-3.7594133321259147,3.421917028018049,290.74667069630857,-230.84882991310928,213.43565833924762,69.44111066749107,79.6751190316119,1
0.05669403748538415,-0.8300997714666627,2.1160200303927503,34.177831540893436,7.210968806188156,-12.728553433121625,-18.989462182280533,5.43585243648279,0
-0.5394008131057959,-0.2470162888149694,1.115865940664777,-12.4995934700558,33.888937402467675,0.9997785074246863,-10.347061294643225,-6.290683629009209,0
3.644610832668489,3.13517358843021,-0.5570366451883555,-249.27618324869445,-209.6243606149225,-234.28571890116712,-58.05398731618341,-78.64236616501078,1
0.36563304651524065,0.8727975675704305,1.6342118082061767,-8.01776710035309,13.196627235009863,40.293445347589014,-15.132857144362307,-6.759346329313935,0
-2.1588969972687204,3.658725135850648,-0.24368293698020094,202.86561603510586,257.80488298515917,-296.12889947926436,76.86148131345315,46.7589411877,1
0.4259729398051819,0.008684867136549368,1.463670731161954,26.43704497962794,43.19920523668408,-43.05996645948598,17.86299094586962,-24.907465018365045,0
2.9028991287781825,-3.3583060274934886,2.714118382271709,230.7295960058343,291.3393951344418,269.10034566361514,-56.89327465473068,-63.17357115272848,1
-2.134868799492324,2.5592150073811166,3.752096860822363,227.0134008248775,-266.11679685854585,248.6280596561527,74.58656374544283,81.57520448983391,1
0.7654542037179461,0.8347501607405368,2.2515810076059655,2.1767069703601294,-18.30168097289997,-17.82139940448004,-8.083339359037467,12.635833790116095,0
-0.9077989459761167,0.31994710578553587,2.03537934949558,-29.494581886004067,-33.0624313894181,-12.446394080103218,-29.474135458721765,-29.69884870053407,0
0.2516737670688982,-0.8732983818264972,1.0407317536047942,9.429518542701373,41.41380840929672,-22.60513370179089,-6.179269879288562,-12.04568405513415,0
0.5426124795860088,-0.29970940650471056,0.6022479846756439,-18.843970667993084,-46.80341081386158,38.36241836734048,-17.93661877934561,13.322714595268124,0
-3.6363306227801844,3.887333714941007,3.99070268822444,-248.1764319818509,-200.9167526466692,-217.68045460942943,-52.19022467264743,-78.3358509796829,1
2.09712217743564,-2.464283565154673,0.45072991069221113,-201.23254794396496,249.84481573271935,245.67111621990188,65.2753421997223,69.70706457215968,1
3.866197093077324,3.4516498945419456,3.077826291298751,253.27838663700356,-207.31121026155398,-221.71121804274043,-74.42307477942276,-73.73283072590266,1
2.706438875856903,2.478680253456691,3.0479470780952798,272.1866678855876,287.66830850109045,205.5688725488793,-61.062407793611975,-70.37520710292841,1
-0.5818577490350885,0.27737777340826697,0.7233144640405593,-47.46502297383318,13.162886155248842,-25.09965426200801,23.965067432485768,-1.7253650923556698,0
0.9444912418358196,-0.5454187095144536,2.1297134312763673,-9.988573966349712,-29.008474190226597,-31.181834529156273,-27.650959545032723,-10.078065279011732,0
-0.6845231639040008,-0.4028434987433318,1.549340520701635,40.63911126406663,25.762680318214066,35.68735390554903,-20.920604566858277,-20.139632940280528,0
-2.329961548374292,-2.4982999758923885,-0.06914139251482654,217.2123451682469,294.52965882995255,214.011709586388,53.3730878908496,-55.21089639700408,1
-0.14421933561594025,0.9173748945575921,1.9855239040642367,18.1821264331779,16.219746746887793,40.429235959439566,7.444088311931814,6.699179855200896,0
3.6953895842599938,-2.2771278413228373,3.2251217022415393,222.68265643918215,-297.4773519532811,-258.94350528027314,81.09414284194591,88.01560188608687,1
-0.26561788788668106,-0.6050441524140984,2.2645710808527983,31.238959536012345,0.7517264259022198,-28.477508720245726,13.27046989591345,-19.02251324510349,0
-2.621346984266051,2.2578333458622826,-0.9407631255475912,-203.9619703231256,-213.74132633912882,285.6220266403411,89.32292239577586,62.09540392900708,1
2.7059762692289517,2.5189023362452696,-0.19279484543174874,-262.7775267693816,-224.29783301513606,291.0110548943607,-58.805641512147226,66.4788703764423,1
-3.341088643367887,2.3429779079225734,-0.003253750961036861,-297.35842653110103,237.19013957264286,251.10139255701293,-83.75585969186265,-56.444008160733034,1
-2.2409276905458,2.6367918338841916,2.5004904907917154,-293.179090629397,295.9583212470008,-230.9984858881411,-82.60882834945953,63.298833901933115,1
0.7810699812360877,-0.6713846390020797,0.5418548025475072,-12.003131802064168,21.808241519195334,12.399311999841203,-1.1985993346644257,23.734736817154698,0
0.3940185936064524,0.14202536148185474,0.7362216740339178,2.220644383575035,-45.706037010841406,2.6431821880146344,-1.9046305370467849,22.261554786552374,0
-0.07810660698284133,-0.35554352829700364,1.6985038592991584,20.75593478810663,37.82966389425732,-26.794587718715736,-15.98107132228435,25.69397008313024,0
3.6059029020969815,-2.041661468126593,0.321531596678825,-291.30024322953574,-295.74240393061524,-295.58492543772707,-67.06514164187644,48.21011891309816,1
2.2201282723012254,-2.281552778853038,3.6989665364615014,250.51261336850348,-235.20244280781242,275.4641166630199,89.18109462724942,84.37698891009498,1
0.7341066018324987,-0.7879776984508644,2.1868720221390534,18.868854199094116,35.755665429422194,21.762675384172212,-4.185139958369945,6.436581362404006,0
-2.3617009023302304,3.545841529041745,-0.049956325374058475,-298.73264518536854,256.9641480252133,-298.85624081252377,-87.1132325738222,-85.38731411066725,1
3.9923645614574186,3.931684453340482,-0.3298727862660491,-267.4489647857779,-203.72241189121084,275.13457600186075,-75.6655794171853,-81.44088218921941,1
2.871375613924101,-2.5691128675279415,3.5004891712632196,-263.77043353441024,-294.6435685130982,280.04705198346085,47.78835741415196,72.24198594650294,1
3.6231354461768337,-3.9724935522620974,-0.1426336290800383,-291.65561399660436,-259.5946941328358,275.060645823014,82.34071089418185,-80.04886459982372,1
3.3896032037661117,2.285579450915244,0.11082528314137363,-288.10925208397646,-234.51035771243454,239.4240633506637,-58.278096987271965,63.86975878547136,1
2.496487645381317,3.913562057018729,0.4304441499439082,277.50183677205086,262.51162996279265,255.1801830720703,-48.923666452025415,-70.05503406810143,1
0.21329124425441193,0.38094842660061623,0.8592960814581763,-28.033428540313267,13.921940476342044,29.53343146781934,-28.57089028789162,21.964153969476328,0
-2.825868876821781,3.2955889355866224,0.420551298359791,-214.53741500444093,234.8838151187203,-279.2282913497848,61.407105790400486,72.95098019796482,1
-0.402321645776591,-0.5650667975874519,1.986218017492579,39.14957874565418,18.50704621245083,38.67255757627353,2.326237606995605,-16.59368235528243,0
0.8917027284167776,-0.3699248616881661,0.9670575377886637,-44.07251291517041,42.945620774925075,-11.22890644904976,12.78952129227109,6.703959696743972,0
3.4834682233856578,2.6439578995657524,2.625007660113636,-287.2408904908362,-208.00136733401956,-214.0614806903082,-73.7920016558196,62.10113279216418,1
-0.9317025235469396,-0.7211234303715854,1.001905756454057,-19.721656377059894,16.80070853408104,-47.67695610144776,10.370570633307885,-23.29635374172132,0
3.1355980796323304,2.852382001107767,-0.4612773924268927,-210.58113254745209,-232.7523994583696,-204.12330867748722,89.52776287082659,-82.97406462140687,1
-3.319799652552092,-2.2071605484892283,-0.761622180214262,-279.90602660029884,-227.6813797260146,-268.7413087830296,61.08209058586259,-67.60434088481065,1
-2.098312164084745,2.7338070437374666,-0.9222119180708099,278.9918538585587,243.6992874164171,-295.25341576527705,58.97616659331372,-81.92537199055309,1
-0.18524613854636862,0.20020758967618657,0.8662787667462768,-23.206916045214065,-11.827411092888,36.85721564618875,-23.898422557978087,-29.94606398006953,0
-2.105158947296722,-3.5999399220276587,0.10044421477135423,-251.17626709447754,-232.34705506620264,205.56959616825853,-65.71013248931332,-46.00542220116289,1
0.23131503630828032,0.2485509939498689,1.1072121315214063,1.9872308037276696,-0.032568809547605326,-6.150197410718846,-9.262815612054887,28.98831191645983,0
3.897109235127519,2.4315956348620205,-0.8538389151519834,-216.4993218455077,268.38616204610196,235.39210120402691,-71.01159851021063,45.118493120922636,1
-0.27161060482787636,0.32787127959040263,1.8449968800450491,-16.87682704418736,14.229127487634912,27.01159388079533,29.836209421037772,-17.679596638815305,0
-3.284322009144061,-2.2807904636205407,-0.5515822344851509,211.4383668956551,-270.1862624454211,-290.6235131483475,-55.31769570376631,-82.46361622242148,1
-0.10503241924732021,-0.2822967565849559,1.3968440397332997,47.840072137257124,12.582331057258692,3.9544824060880472,25.637403231229534,-18.199306336769805,0
-0.42533783305380624,-0.35017582047231866,2.1232663715673716,-6.734621070892189,-39.80284521701739,-21.63778132640778,-24.33823978957358,-19.47704345743305,0
-0.6250183782101622,0.928713973250147,1.5100684985510988,-40.153972357451266,-24.93776473975261,-41.18722442405574,-7.440441355923756,-29.65715432159437,0
0.24414303407116877,0.2543629338819158,2.0614242151752844,-16.385678215222796,-45.665256693212385,49.30905435554081,26.747724778209182,-8.134441749230813,0
-2.907950499715179,2.705030864940732,2.5118470243341333,-271.39116683242594,-242.0667955105902,209.0638517521508,49.48147746125324,-65.64636022142813,1
-0.5908512727725188,-0.48531109128653194,1.5591485850475693,-42.2982048164351,-22.005196417487905,-45.17772654759411,-14.90541823013161,0.8534672199468041,0
-0.6646744993881901,0.40167007135381727,2.0235893625496932,23.3135944445752,-3.9551953233706953,15.424269691479978,-2.548680233074073,-20.819513978824347,0
-2.462824002119598,2.4706229774336474,2.6869496906962755,-268.03028305067477,-235.96999356317093,285.3604613980227,47.29803023229972,57.670757651191515,1
-3.63500807142547,3.6539949881789395,3.21099206738646,297.5153577833077,-218.39900393584162,-239.42843240669166,-73.87897155328737,63.76818039412747,1
-2.0336994243471835,-3.498401755419474,3.154386764179249,280.17751194763827,247.2675762794304,299.8197195728466,58.24761051671366,58.27559918232758,1
-3.855047676446749,3.313352824765263,3.9368100607887304,-222.20464644548224,-252.00965263002635,230.5707545255565,-55.23974990276752,-83.35522382409458,1
-3.588187753186938,2.331843488211736,3.152021206156565,-222.4825827887508,-280.07356043979365,205.80533786947646,-51.91909779621348,73.00667594449804,1
3.208799635863219,-2.4396635059136376,-0.7822945072324594,256.1436073280333,-288.5601871813054,206.83471898096136,-56.805078526010966,63.161506173162515,1
-3.4721488271142316,-2.8115701409169533,-0.3172000579044175,-271.3133970721322,241.07455830520644,-239.95722344122817,-67.26817079276192,-74.79548966390438,1
0.939717590319491,0.02159754099655653,2.4470486608096573,22.951135849730747,-8.070897332559149,-42.436622130668496,21.497470682241143,-15.552129332862139,0
0.8147138175641717,0.29260786612179657,1.2321778382827473,-14.510753765514238,-22.293498705720616,2.4522557511094902,27.205960116260357,1.5429491367356754,0
3.1073004392739985,-3.35551766649968,-0.37948075103470036,200.23462300952067,296.75860397623313,-243.87622534221785,56.30029031911426,83.63857337191337,1
3.34117699757663,3.423099375258071,-0.9295525351013252,264.60598156236153,-296.3939921596151,-227.53347667663513,-74.50698805066891,67.49583717842933,1
-2.3082522034862145,-2.462850722944164,-0.7166176625807156,293.14300544009905,206.98541099656111,-289.28801693593425,66.37845823777076,-67.35017890795001,1
-3.739526761477432,2.3526597151730426,-0.5526271658811901,-295.47357032519585,-235.30700687354351,245.45392065244505,-66.59330045842503,-79.17475164315036,1
3.172643221425713,2.693078206126854,-0.8460038945133084,286.5245086918201,222.01582917112748,265.1575782604797,49.90150794051129,86.68993972701136,1
-3.9289428258156747,-3.865834069631953,-0.2512185152253896,280.8959211376634,210.0839818990153,257.9339307817717,-50.091958222885005,73.73079896573527,1
0.6782602326936555,0.6021886578330045,1.1372445661341757,2.559362556660261,-4.530657308267074,44.9872022719604,24.98739869329424,-15.73183852955286,0
-3.6923743641489115,-3.805365149489308,-0.6999162584114026,260.48379121714834,236.5603902653571,207.19253300164686,49.84123528606,64.1833946455857,1
2.6574710843807945,-2.936012715331085,3.7201396796496002,-234.33501352371286,-202.02880063342445,297.7137815410014,-48.95113683835577,81.60804450783044,1
0.36970810217166084,0.0367630340893883,1.6117757712564904,-46.72596168976314,-21.239259551878487,40.05362596081612,-16.51581041601206,-5.601412322395323,0
2.589222137442305,2.0859704981038294,-0.35651355151199926,289.6969923781181,227.39872667391307,241.72371915455204,49.27513642247165,-89.20206371151197,1
2.5330194911586563,2.9074992477647497,3.7571314132568743,274.6655735389779,276.234947173338,-204.42129015478048,-89.11048333030698,-81.02689266167086,1
3.4598641419498937,-2.625086855050038,3.4649295158326394,237.359093870761,-209.31824282185573,-275.7674565653755,-59.91564501675853,45.738628452027164,1
2.227660056789575,-2.02540351266251,0.371841824037366,238.7752066700228,-287.1992292005912,201.27124018937494,-84.27885886618296,60.12725891597977,1
3.2702829875974326,-3.2426022336667115,0.09260354559905215,268.1662308377595,-270.47606257720923,218.61940038894969,-81.28335575049692,-45.055209426004076,1
2.196633643969604,3.768204904990372,3.018551935774557,240.69872216380065,-261.4584045311366,-214.31596323960844,-79.58107510092505,50.52634693615492,1
-0.5218145101047895,0.5355594213207251,1.8219189671351443,-7.288329853025154,-25.390849392360902,-3.8302125521880512,-27.798312285017776,10.233269037636362,0
-3.4665551231062883,2.043201666078984,0.24669508618277192,267.92924464817406,-245.5039146622864,-219.1672919879955,-53.10382835623034,-46.50124050623267,1
-3.588526614941136,-2.650840583710364,2.940872101210428,-221.3469285956598,-220.88683382055473,-228.8757339053547,-80.58866446719955,71.73680857760834,1
0.8697430315657764,-0.6893034906555211,1.4263810801632981,-6.754157050683098,-36.92255744123783,13.772969517218868,9.882743838190677,14.069968123612696,0
-0.9011733395293162,0.08039262314702555,2.1263341295660103,0.6395445767979808,34.828077992865474,-30.442232617642738,11.594707900072287,-6.030806405702009,0
0.6230135530553771,0.9675980572955696,2.4408391539326284,47.56908746390124,-15.447568903970243,-42.2702350428656,15.462764555443435,23.32162758416341,0
2.059626380541056,3.355974656493861,0.06517966865415503,248.3722559130666,-265.9195580953541,-277.66802411537464,72.07205837301262,-54.571952670339286,1
-0.5224481009199593,0.8732570014079808,2.3431831353085437,-14.540431949124788,16.218199240637205,40.226245713198864,-14.18491430252095,4.410358089764799,0
3.6939053848749737,-2.7732508239237452,2.5459230460405546,251.35698349147012,295.3206325083865,-261.2265803977143,50.38178340103651,47.38524707005214,1
-2.1685356914214147,-2.2476664591493924,0.0004582271802389126,-239.44959346568777,256.0031053930348,217.05567823012282,50.32255927022925,-84.70587894181419,1
-0.1245659945082016,-0.9173677747146627,1.5477544430705767,-35.96814211193274,-40.759060851076,1.7725879725816966,21.465289106759094,-19.874765615909418,0
-0.03457418567153425,-0.08442966489186521,1.9209692355658303,32.51710873386119,2.205903215771457,-26.483105610089495,-2.8059506371042247,-1.921443600068958,0
2.128614376410275,-2.2771631990933967,3.6936320914374905,-211.48305770026474,-268.6973066379719,-212.94876990597385,87.01384045379103,66.39217589991776,1
0.748945389269051,-0.48748037726384585,1.2955137425907275,-3.727447070428667,-37.920695412908685,44.916556407527125,27.128675469271208,-8.640040236842445,0
-0.15374224716354878,0.2917977057923631,2.088558234961261,-8.110676280530647,2.9209589516916097,41.24602671337772,-3.5182339839828742,18.665131119931964,0
0.6808698671448834,-0.9661632240259621,1.8930839692025692,48.1435442432721,-7.740941439589442,-46.28557813886606,-13.347952902729684,-28.449159581474706,0
-0.9428475282764144,0.033204870727541635,1.7288999047305045,-0.5418791116035919,-2.685457656257263,-4.641280459168243,17.61905651007485,-6.071514446474318,0
3.9543326228448867,3.8495356040760624,3.6689935270414304,-203.11615652836386,-202.38106084177963,259.0520684574069,-48.54218353513174,52.49176488909373,1
-2.876670907258129,3.2241501727212514,-0.08133702326867243,-216.9811780242702,220.36955009239807,-204.53208877699612,82.98736556984699,82.88974004147013,1
-2.3621276271027107,3.3467250473891528,3.171991760932844,-203.84478151360804,-215.17052406854415,253.22302514249276,-46.83888361525966,56.96083133304273,1
-3.1390428707741105,2.924711573975872,3.6380182272900354,229.43526929742782,-274.2288145303335,-224.24625130142172,-88.07325641042996,82.25320188569367,1
-0.9605387144456257,-0.07846002236588867,1.033550300010506,-42.0388764454486,-30.139787569908073,48.43222155760171,3.2905958078346913,-10.950571343819163,0
-0.2968544646734843,-0.19486263136080462,0.754950151005302,-24.25679839334187,-7.752020115695544,4.6037351490435725,3.2141447556117697,25.576135217901864,0
0.8618692500126641,0.34045910748259045,2.0169410106040853,34.76024574616628,-20.055656027268498,14.25555371473203,-20.799749915878657,7.763214944873177,0
3.765190545071869,-2.369160193358331,3.786792913226263,297.136203099857,-214.23277505919128,-269.6389014526633,-60.68649211172552,-69.84271730368879,1
-3.1795581953206935,3.2123160095373406,2.910116401719911,-233.88258339313626,-259.09789484303076,221.38896651122872,-73.69451246314455,71.26173927863124,1
-3.8912007057096982,3.1707428968249287,3.874354560239543,263.8210712090395,222.45079092140577,251.39074549069306,-82.20911945266013,-71.97233647874438,1
2.862189003827953,-2.66993291108637,3.9413029004045375,265.67415401674833,-288.3320150280255,227.1819446754764,56.70212217301794,-55.57613198780998,1
-0.556452307922211,0.3082097887187869,2.434009318785109,-38.96133197378809,-39.97935406741365,44.44561878239061,-21.63337711516366,-16.351575078903767,0
0.9022487972794886,0.01493573877859089,2.0789095435108633,28.43037707936375,11.12347859817828,-19.785412120066947,-23.27327853205291,-28.221004612399284,0
-0.4511635067100417,-0.8655378741511577,0.6222994111184892,49.072933721950534,-36.18533135481928,-40.77131556734097,2.9231890685495543,23.076580868833993,0
3.759055921656916,2.7655944162784856,-0.20883036785991094,251.72283789715368,-290.11402753979434,-270.5373336306645,53.14483331330639,79.37205635745835,1
0.4542612377660544,0.3970584863371076,2.1508977523308266,-8.146695395593554,-47.113718777663415,4.565685090439686,0.10852507996768068,9.770643771747963,0
-0.8333893308482323,0.28811800057988424,0.7074931504326669,-29.404568333439617,32.11119169833407,-13.940334255143426,20.429907986630994,-16.56696005287887,0
0.8485239458037892,0.2141377489765388,0.5579896834693432,-44.819731916238915,3.3583951545091324,-37.68400420820619,-2.7208291627478225,-4.8377406304139505,0
-3.366606981264682,2.2574707244065664,3.697181683805937,285.3646439023652,-228.3226403463526,-255.86581456818143,-86.61786160241746,73.46122528825802,1
0.3386037927012886,0.8639221981663525,0.716779416632827,-3.0387934330234003,-6.735173969087924,-37.69037193330212,15.130560963380603,26.851385726918046,0
0.11604308253155415,0.7643910497454092,0.9230496295355419,38.00256574751597,2.850781696143102,34.37093181750966,29.334131075777805,-14.55150353713998,0
3.7880334533127815,-2.799796263074229,3.2213894590561347,213.93793898720355,212.73098853215265,229.80316844016076,61.8725016469577,86.92570343829846,1
-0.8730577863351177,0.7138670057411567,1.1302906049179715,-6.0307747800897005,-13.017584595052568,27.026853629007093,-12.323683441190457,-19.968164135276982,0
-0.8216111443186314,-0.40872633524304147,0.847667742189465,49.34557108389369,-9.261114794287792,31.311686815030043,-3.1988782692380227,-1.5185714824599614,0
-2.7045692787425923,3.6975124923889044,3.0183134123785744,-206.2324922501325,233.27757357259983,290.91973236781786,63.484574039804976,-53.55489920349416,1
0.2545203514069547,0.2939668117608951,1.351916965777762,40.034715920069274,-17.37961220108781,-48.615538335716934,4.462944254983505,-2.6190688130367477,0
-2.6509275462437993,2.7928712846821737,-0.9368235214658489,-292.08174438272476,-219.567029264429,-258.7419301883725,-48.799390145119304,72.63273624724104,1
-3.564970923668563,-3.6529023130100144,2.5918709359850154,260.94009862943807,279.28115911445116,-203.0146187606253,75.87177163068594,-52.085484119390735,1
0.759832672829996,0.5796714833166847,2.170873478003455,14.324032607897905,-29.838737267001136,31.557513446517717,9.631013064600701,-26.540087101492485,0
2.8593956661421682,-3.7600276444632748,3.5455144167325594,245.7380152270719,-244.81048179088265,218.42090496460133,56.559337746718526,48.87739562297164,1
-3.1446481144635903,-2.835839559143463,-0.8998607891514239,279.91222479495093,242.95545574598606,-299.367482971137,-69.74926422679621,-64.96183231618146,1
-2.511770349909102,-3.5715592312031927,3.473250917718792,217.46530439123427,-278.15338086160955,287.64104019747555,-47.64986636686725,57.12585642645385,1
2.7891481921983434,3.8955963588187634,3.8492375972147492,-209.59070233467395,254.46606319351355,236.75876009783917,84.80704232768338,-63.81625691501537,1
-0.3769281569061864,-0.11747170488131675,1.2419917278041936,-17.016745208373344,22.164192790515287,-35.45116883986657,-17.05645159731485,-6.296049663563988,0
3.2679454227524767,-2.6483368403975027,3.6041192972595733,-230.21651109210114,284.78906277026385,284.0861075563422,-82.39708101970349,-72.21811994479364,1
2.385127641354619,2.9602266478408685,3.8892389115771717,239.55022820969606,201.79025456534015,267.3273999974907,83.74039061397164,-48.106980295776125,1
-0.07342223022365779,0.7905654771427459,1.8670369885218339,-46.69971791042503,-38.94411265116818,-5.882913685428818,-20.715793925544936,-27.99745926699835,0
-0.4739074628687514,-0.48510835094577365,1.547311774357825,45.51541604955533,-40.41978857310681,4.872845269023884,2.660959468405089,-6.523123383965867,0
-2.71554578947484,3.2071778288785335,-0.9556098774921362,-291.84036787553976,-237.68953532504335,244.7489115373605,71.85070717467066,-54.12185901765738,1
-0.26900897760342257,-0.5962350445163602,1.5166775490545086,14.015091576316578,-44.33195521894335,41.84970113855735,-11.305390517759484,25.393828551569854,0
-0.3096812760620733,-0.08814105782140902,0.5084828720752019,11.80891739933302,-26.05822887801881,24.98993972623228,25.709010166441573,-13.173750795159545,0
-0.16508407207208342,0.917349484156103,1.2002449804029616,29.22509851426291,32.30228493344069,-0.5958521502394376,14.85033577975544,18.79052379013158,0
-2.1655869228338345,-3.041428682924563,2.5674075902316584,266.00606856124904,283.9240216168045,284.30804266639416,81.10058413207074,86.54352895870248,1
3.6833237951525177,3.0293638894069295,-0.10825712123845521,256.4633540595379,230.79916134495195,245.04469353209606,-84.16879145327665,56.380701027229705,1
-2.266509306669831,-3.435560590329737,3.7268137611487786,-238.95962188993292,-269.8853975381248,294.8489471231784,-62.295004969816226,-67.89462622854586,1
-0.8470238506137264,0.9614339872045383,0.8612339297343676,-30.392298650612837,-12.07715045963237,-12.731730850965619,-2.509474856381601,-23.3131480148344,0
3.2173852044754416,2.240609836098625,3.8684778566968117,278.9911962003187,266.2807459926796,262.66182995634387,84.38500439689241,71.82916004099619,1
2.803815594526568,3.3679399466281565,-0.14371295093232672,200.303413962702,-299.87873272692616,-230.1106268554118,82.80159235028756,76.11884581100388,1
0.45507354879830264,-0.5136029354217768,0.5204247148391983,-24.801158811210698,29.383511932576795,2.7852905562140933,-21.55993171866553,-26.29689362628416,0
-0.8824130068219218,0.9233331753129348,0.8170107646614804,-0.5500367479592825,41.80170424062584,-29.61160647730392,-3.2172735312874323,21.853333421304868,0
0.11274570071273171,0.687504564541773,0.6290024038835307,47.47945730045197,38.77829860678207,1.0574815848326082,21.090100788378628,-27.760927385081644,0
3.184419860442917,-2.2839304306920507,3.3498885649757604,-255.1157335084923,261.09428853430427,-207.54757572155978,-65.59916879113061,-65.69480776705642,1
-2.8501008969428336,3.2213738783959895,0.1904206735288132,240.69698159976127,-286.1304335059556,289.7890836758055,-79.83305398707589,82.09586524593219,1
0.27886483717357624,0.21558147868777677,0.6951216981254362,-42.76350516339444,-5.350137627170625,-36.46314904183194,25.17784579644345,11.713281688636215,0
-0.2611723155644585,-0.8265403219967586,1.354179197302327,-33.058844365353494,45.89895853120531,-13.029520950387074,17.58380952256735,3.1433706725564505,0
3.8401615847196604,2.3882519863172,0.14550221932688379,-234.4236992804757,251.98578283780142,231.832809785402,84.43471016750115,53.20963788364406,1
-0.8335026119158999,0.8757967875273407,0.9607467206277616,-39.26412490900477,43.20884567740467,-20.758688789525937,15.95956936972533,-2.3072739812121625,0
-0.7575775325587424,0.6241482872107069,2.0294889087757975,5.520600993572536,-8.099789030847646,-29.39645175397879,-6.233167139822669,2.7852797533003724,0
3.0872201939641606,-2.4816208073416632,0.4276746647454168,224.21835901960299,-213.404607114239,253.69693990782034,58.714573417855235,-71.36896952158979,1
-2.216680496431675,2.0232248648421987,3.4028717982634737,-221.81709297216855,-210.86963123804028,299.827089833067,71.20274554139196,78.19547545169856,1
-0.3280305939738639,0.16610215305677234,1.0497149362240776,-19.772938781133288,38.425792568043164,12.826075897902399,-14.971791152680098,17.74846132217472,0
-2.1862088995003055,2.487375197803813,0.3108456448751302,-267.7638343580144,-248.6846763278516,213.31420641013327,-70.18192098217783,-62.542702535553246,1
0.9064729229204063,0.15920961849938653,2.0348546290316634,-16.52749189010271,6.233493415468061,47.005252252500284,-7.554537758421475,9.064025646631144,0
0.6655800150221325,-0.6762010177941764,0.6256284570994533,-39.99625982424888,31.518836119370746,21.043976781748867,-19.036004621451056,-17.9526437296011,0
-3.4489980327879457,3.4307335330401694,0.29112012151946454,263.46353762796946,-216.6052152699528,236.4243109685916,-77.09956716274478,61.22261609238461,1
-2.6967387663904017,2.962968770810771,2.7137526967613894,-202.29961543264463,-222.32026444567887,277.43454266700667,-88.85495416683096,52.30547337318322,1
-2.2856045891447545,2.875718947410217,2.6094338087374087,-218.06901326774545,257.654380770438,-253.18225786685727,-68.41199363171573,77.18976439282113,1
3.672602625984905,-3.9068543238666056,3.599743868019298,-227.17379377556534,247.06900265387299,294.2646151275253,-48.79924963384992,62.08766791233892,1
-3.0314967549384804,3.3136579709487135,-0.6216910855938341,208.00206884365815,273.57247768787965,-243.81763050424212,-52.658012712435195,-89.63454925345036,1
-3.933178304666062,2.2901314557215358,0.05550517373226782,-219.41241472996114,-202.818342708989,-262.6502111564818,-58.23588103060024,-60.13874002874845,1
-2.3793171964218436,2.8851115015896394,-0.7985782775110588,213.14249052817956,-246.93586385946034,-248.72594222486833,-86.57999300283504,-58.31621075886499,1
-0.46295527199342357,-0.7745800243214751,1.2228326089174943,11.350537801184132,-6.502709535005046,15.540470684409925,-10.221986843134701,2.6281174353162555,0
0.6020118764570983,-0.08461501748275313,2.286255929483154,17.36126207900446,42.84175835503808,-29.86533242946521,-3.3500774478590216,19.253794231181956,0
0.7872611669150047,0.40924972971686646,1.2017542504711853,-27.831207615680885,-0.35141219287554293,-1.6106133981190567,-4.181732969928824,-3.1805508955614172,0
-0.5472628002334117,-0.6938843876388547,1.302076425717148,-27.45668619672915,36.409782248678184,9.943932276729505,19.41197196123828,-7.401226226854547,0
3.5746709592966357,-3.9294758564696943,2.639103787509913,265.7383018348056,277.39404220152494,251.86802894451623,74.17128964508406,-54.45761779499676,1
-2.0098753934437035,-3.0570751070440974,-0.38749406961154687,-209.2771383736569,258.9366672440009,270.6093764231555,88.98427989467496,-53.93188127112198,1
-0.4698468536724949,-0.02136412945715116,0.8555950909321837,-5.935309505900662,15.907267878600024,40.49701294217654,-24.86601487048074,21.541069790975648,0
-0.9787409887903689,-0.008386598910273602,0.762299430384396,-46.60910507516355,46.23707498063297,-41.64893611401514,-7.105620788394734,26.187124457185632,0
-3.309891114515084,-2.8594222944142587,3.4002351126954586,286.6117192027294,-295.40674381036706,-246.79075001327493,-65.54989414794426,-48.397728622637324,1
-3.9472028807077146,2.8454564031080793,3.629775334153708,288.1562624003366,-271.85506379944013,-215.75455627607306,82.95595979589984,71.67859661616507,1
-0.1991209135255796,0.01696757405099003,2.1497338664162733,24.31423925114973,24.63018619477036,11.245739525525245,27.547155249330338,-11.050617106110849,0
-0.33261178393388335,-0.4637974845655959,1.301319663317326,-28.147182764146315,9.919709265224562,12.587531960946649,-3.5299280061415743,-5.073317105055121,0
-2.492417517189665,2.7330414767754223,-0.13582371637205914,241.72149158919737,-234.4520468548326,-203.72076830736134,-62.36149704922111,-77.81893165071187,1
0.8985579730458835,-0.9382181248665618,0.7520040323855237,27.672091470305787,13.128191487801779,4.26337353989841,-11.236673047734527,0.16303166052589546,0
-2.8897812380986503,-2.5323008633872286,-0.8348628202918233,235.38080580642583,-232.07952161646415,255.5340398314897,77.40039032769208,83.88115996111766,1
3.2076772529393462,-2.0557446622940216,-0.4172752893011469,254.16184431443514,253.82053028574003,-249.4313465985685,-80.33938055683163,75.12608160121889,1
-2.319619631910318,-2.370359440861063,-0.42527123448847626,-233.29972338419276,-290.34593876051105,220.65318346495835,62.70958359284051,-55.9743250272362,1
-0.14219738976265006,0.32367111649090097,1.7044081241427367,-40.0420291984086,45.891276705627774,3.1825991776590925,16.977724981013594,-25.89433516651742,0
2.791175466792794,-3.324931345200753,-0.09090808257139371,284.704179363318,-225.18589315914542,-290.8253122212782,-71.65934493410428,75.17775864298827,1
-3.8599548529182064,-2.146667219552361,2.8008759151945046,285.40365124348824,243.51137729877365,295.72497359750076,-53.447894358928295,-47.04919741733969,1
-0.6736262552470127,0.5231851726475969,2.3435806744725194,-27.42446022999596,3.341040536958758,-11.300690263660975,18.619799978379383,-17.750848311085086,0
-0.6929409422896184,0.1503289517922035,1.8335363934968858,29.469620584288023,-39.11553870921441,-35.31567137866183,-3.407038669131527,-23.147226705164176,0
-2.9029208629107544,-2.739305118105978,0.46737062537150975,-224.57364435798547,222.09040086511533,268.17036426919015,62.16253694476653,47.40043640389113,1
-3.2252431655723295,-2.093131236835644,3.008744389631464,284.34430055771384,231.92386171610585,254.7089546863472,-52.2710303917731,-64.12280698023115,1
-0.11169749091876624,-0.035111069439746956,1.9842100428230809,31.732264773474213,-22.47380488296318,16.51384662100483,11.322297317922306,13.939415983785437,0
2.6265445753364034,2.3012907437551178,3.700856120769367,219.78542665550074,260.74361228535946,-210.41932056911082,-65.90269701091685,88.46674502670797,1
-0.9404885382671324,-0.8212784178956953,1.3604523944766498,10.74659728257079,36.69879569008751,25.257000477602716,6.65034688845855,11.613561590092282,0
2.2317709589828194,-2.318144921675822,-0.9937272645432841,-209.9297922294122,236.03468358742694,213.83308742336504,-75.38528519797022,-84.85337519181411,1
0.35549025812613655,0.7448430621224886,0.9919023337422945,-19.34639552527476,40.15213644794265,8.559284835022439,-1.27903560109743,-14.609280382001252,0
-3.4850625975074294,-2.7842516849675922,-0.8502701624144999,-264.12022714116637,-218.44871911906017,279.9989941219521,-82.44542754303413,-59.14756840901838,1
-0.8717615366140268,0.3204794776093618,1.84932758823111,-23.205323336837157,16.2492098569453,17.87211125331747,17.256928509771527,25.67712604766723,0
-2.9988771247532178,2.65297744210497,0.3796936979543839,-292.6277557610709,-204.45150114083611,255.25566593142798,-74.81283093817876,-59.64732815928221,1
2.445308981033518,-3.377802701077197,-0.5427037976023641,226.67820395268382,211.36864560218325,225.44158397425502,62.15382567045609,74.83705442812612,1
0.719939812794655,0.6866818671865604,2.0050931755996384,-23.897311282505342,-38.00513025164527,-13.316239505000013,-29.683090052727504,-23.194460678806287,0
3.8967434149434386,3.423233651096946,2.912543224348348,-264.17258519171486,-260.8951172641844,205.35401531217084,85.56913381488012,77.26207706621423,1
0.4872286824158434,0.5273098856785678,1.4222889459882948,32.50764850799159,15.201546953160872,-29.485313354770547,29.961434746871618,21.238619797545674,0
-0.6775782237503001,0.3965363924568557,2.281233218611524,-25.26395710634157,-13.17703197270287,-43.45618744892992,-25.61625055381402,27.499545761475268,0
-0.4076230376663357,0.8079437681624044,1.4177621898456156,-26.558921483060118,43.91726748190966,14.754131760811845,-1.4890122483001917,23.224437946813417,0
-2.738716861824126,3.407287919182246,2.9209698479639856,241.09914844540188,209.0812543971346,225.99536596316398,-67.17303241800077,66.08968603541445,1
2.4835272637982886,-3.250101443043553,0.4225630241752296,259.56860607044115,253.23650695522258,-224.10296326264185,-60.41351476690215,70.01023381337865,1
-3.8729014860768354,-3.519885023296996,0.12050000448243647,226.81995037849464,-240.93175340089476,283.550476070537,-47.664994080382975,-58.66321552587826,1
-0.5266185638935503,-0.14026891314913037,1.1232365369519295,-23.71805427436322,4.867135992881124,4.911060764748264,-2.157098315374032,-3.680545734033032,0
-3.264799187778011,3.146585546740957,0.2517418884521807,-238.52740697462656,-289.10620230827385,-295.98441297808023,67.21730279169796,-83.55109721257601,1
2.231439224299299,-3.709885030018982,3.103375069166722,-252.68210132011777,223.19864336833294,215.08497280519836,89.41615401241245,72.23013116694645,1
-2.346240415937614,-2.4204538679508714,3.1240794449491815,243.98589357416108,-278.3318092289291,-227.3366232284368,-68.08938571795636,-53.46666357677331,1
-0.1614606690289253,0.4926716138531442,0.5754533807964626,42.65340275971127,21.1453673915708,-19.608599707577202,-25.686546587351508,29.287703983244327,0
0.5385110621136162,-0.24356863300013476,0.6263934945971825,49.287347761413145,24.165364144416742,-16.893633860714353,21.812965726308995,27.242252348424977,0
-3.759108510617522,-2.7185549530241717,-0.8001887380949725,-278.43430647925453,226.85221407260252,-281.08032033474115,60.95597355614606,73.73674093795474,1
-0.03297551565088863,-0.7920512532587782,1.0449230121769435,0.20577445619821333,37.07839731006058,-0.10781339487624564,-29.680672555860493,-12.972148198623703,0
-0.880179870603204,-0.024431466634519783,1.1126728767948144,-42.20502275520328,5.781370003750787,-42.02324394409502,-1.4294408467292712,27.595358268097655,0
0.6288503445148206,0.09157899063570674,2.064862020714948,-45.82885906517915,42.88216592845812,-23.957512446441488,25.071983479232905,18.973027443570267,0
-3.218861563218715,-2.347719677373564,3.902953888446035,-283.4911939186709,297.7998819897577,252.4706216839441,48.5049600164296,88.97740100429675,1
0.555039117503457,0.21590571716188545,0.5076933258200269,-48.61876048524818,11.157448974122332,20.186820080320544,19.435332141390553,18.555715701046964,0
2.4196675344154066,-2.227086660751833,-0.6749336365177294,-277.6121215906358,256.7118400613937,280.59883340351917,63.14515776425199,-70.96363803143346,1
2.421622123968085,-3.4617980946886275,0.09882390719567535,205.70227188887202,202.54720251808897,219.10587078121299,59.49320704518183,-45.52452435343535,1
-0.3655182316126977,0.2993082315001383,1.4765429752993549,-9.841486414234666,47.492005300871156,-17.424416834106026,-2.7119886474209913,-18.93363090742112,0
-0.5488591331352624,0.06497974459495404,0.9118209242946274,15.83326368865599,-46.22181053387641,-26.690484774366997,-21.330449655391917,9.77556808778536,0
-0.5418657353591467,0.8015034011546345,2.1898130408276995,-9.236743719707754,39.05459554517397,44.06680836380569,3.950986774151268,0.4254808878234755,0
-2.3385533551311006,-2.020201520440173,-0.0403011798716848,209.48923872990608,-243.27772266882323,-277.6137858063905,-77.37298248329694,-89.42506837687203,1
-0.8364461821918943,0.8136591942570357,2.05808272608338,14.306873261302272,6.958329279732467,17.500106343702853,-8.265447802991183,1.4836810940269274,0
-0.7004598814369531,0.8747424691349361,0.5348750830461542,-30.71259292414954,1.0896839671666783,15.331676077676065,6.947232734113285,-17.84094291370497,0
0.6082761049091656,0.32901434102102867,1.785238105697628,13.874031269405009,17.667331474482694,35.01610837283684,-8.145130775653595,-18.12493079458224,0
0.4186402635250117,0.602767930097007,2.3658545369981834,16.765414993890133,-10.593065672725245,-11.13567280765173,-8.072723209528448,-7.385390777018472,0
-2.2156699071582326,3.2280532890167444,2.9296128478048122,216.54679323275292,279.1528879381731,278.1816135021287,-77.48754761167848,-64.41210738234415,1
-0.17258133776556006,0.6763929180056667,1.682040460290107,-45.59487223859195,-24.379486151147233,-1.2524791820785168,21.975654257781535,-20.10740047433052,0
0.8042721612974437,0.6848314433681162,1.6393678052641603,26.834207162870257,-47.98848892818943,11.330956576696686,-21.27291301109321,12.637494800483196,0
0.8418177105681601,0.7242884732235746,2.283914815335007,48.82379604236229,7.220988859250163,-46.2280725882755,-23.616307210528486,25.9094362039911,0
3.183864195742598,2.6525591773768555,0.2809833470336489,274.97781367678493,204.8856194370666,209.06632503669337,-73.5410091848177,60.114672030249416,1
0.5193407522060101,0.4368076387875053,1.4975734603657456,-17.858973541570855,5.323935276627012,29.89100740252792,4.836132573297611,-9.424745828588563,0
0.3518902304132796,-0.40404830376449863,2.20753838647982,-47.0347554768485,-31.088347070747258,-36.47923738391048,17.667251793870307,-1.3032000525327767,0
3.9625235258149214,2.9139492498360906,2.8395547056988555,-270.7547391449302,274.4360932242846,-244.46034390648134,-77.58028496379669,-53.899870366694245,1
-2.6514636067513075,2.1963947991524657,-0.48241119552377887,249.00081697505885,-207.8750969925548,268.8534145633729,-68.2895373677848,-50.819137167091334,1
0.42489290141008085,-0.7134381637217435,0.8692370077683731,-48.48372646007986,37.41609964752537,-25.507871633001557,11.428167600977204,26.41893288376331,0
-3.6554463232544507,3.9514539470129364,3.0952467700709,-245.98800950961157,-292.4115575608061,-255.92191667575165,-57.90327120277232,-52.463198772201196,1
-0.19067444675570444,0.27760994551361584,2.1623493362433575,-37.69530028798664,-40.279497783582364,-24.09823923118174,-27.963490234963707,-16.289467695126802,0
3.945754080717041,3.191787882296246,2.557136516200773,222.27419512571032,216.05125325593352,272.94014403344573,-67.9742627689377,-66.89591278283683,1
3.624484287749637,3.1977113435769096,-0.9133002198654969,-213.08683038816577,-274.5880638099317,243.72265874247103,57.57397555564674,-65.33547340832398,1
0.8600337077052651,-0.8078119878846652,1.8515552389017624,-25.805359834993002,-41.25398536215052,22.036025007152205,-3.621758565393435,8.75335234399919,0
-0.3223957464053171,-0.061887348805109266,0.8273190262705614,24.738368532740864,24.779567232402968,-43.05150698121815,-24.73768514884528,22.46535539907608,0
0.33537985948421434,-0.713876591458326,1.6705482729277448,0.5215099178493361,12.16135744373085,29.44075789713088,-19.689514381841743,19.643714694987523,0
2.4195641890035264,-2.6542659007759424,-0.29635117411991585,-276.5354362134169,-295.2368634288623,-267.88720387403504,89.19780320014023,-88.5099611184937,1
3.279666240835846,3.6207099029137337,0.19655095422553703,-287.20652630835446,244.77354660021288,-243.14459408740157,51.832670950359315,82.78271286423595,1
0.21096063749986493,0.36023025059543756,1.3123385316376273,-11.5114321868692,-35.838151645836206,-17.19705994772024,17.619040724587187,-13.523136802944414,0
-2.977305560556129,-3.929520573331158,3.4334594089121353,272.25381484180406,-270.15937728485227,-216.15890760079228,78.01600845956287,78.9774187071151,1
-2.6817554025158583,2.819206438925555,0.3414943597944351,-258.6913963865963,239.47194396911166,233.5614091886663,52.3102744487672,-49.79077373727533,1
0.6051324470795854,0.153069199370635,0.844219284946637,43.37312586219022,-18.666582540963795,16.134878390669655,-29.481231042568673,-29.598072759546252,0
2.5138491555537055,-3.3335141545915397,3.6777707918179248,244.97487984308356,292.2730205863076,-231.49433180243318,54.14957390142875,-54.288804002340164,1
-0.257297282183399,-0.571923261801832,2.354865616585217,19.782091195633626,-41.54109753789888,-34.08577890163414,-5.0476078745219155,15.43964365165445,0
-0.4650856099582721,0.780880240206167,1.8625864207657465,-47.66250217303336,26.348908874627668,-25.309619014263774,4.530100000617814,-21.095708724774003,0
-0.7426466459423819,0.10633841828235857,2.014114005818835,43.353958187733085,-41.51228460151461,-45.363444410790606,4.499843449980403,-12.164963656950182,0
-0.6147489878729566,0.42416410110302816,0.5310580759501109,-5.328709287075327,-19.725397383473474,-11.872843245489705,-28.23850219991452,-29.861311599614588,0
-0.7097677567646408,0.6943605688802255,0.8493931608242671,45.04695238777943,-14.251658104958679,3.3031579685240757,-26.17722161636713,5.471521165046411,0
-3.3984729959312245,-3.934676349142179,3.2561322995871853,222.12028261389145,272.0121567562853,-216.64145782583705,-48.4332177290328,-63.07223443128744,1
3.394266288871191,-2.4308348612897426,3.0980504100007575,253.90151501016277,-233.51528673343395,-210.80373004118178,58.411875197025594,68.63211068709674,1
-0.06842087122604634,-0.5777006175384474,1.6470145412333128,2.942442095223143,-7.958147127576879,7.154635216241331,23.426407106962188,20.872519993338017,0
-3.160044265243802,2.129725209400301,3.824085146604066,-266.5773573902413,249.09567784740662,-293.36032640940533,71.25659461069735,66.99505187736045,1
2.5888726599564773,-2.550660659473643,3.6055246021707923,254.01409549614723,-283.3828735670953,282.8620433081509,-63.71558612482773,61.92487857648341,1
-3.625856168571757,-2.4076568384660106,3.049028787660683,297.48129202296104,-209.0973600308405,213.94667767808036,-65.8015151342394,76.20867917051947,1
2.2347310577100763,-2.6052469509243172,3.3893466658100846,-273.6768304586146,212.3621097759862,-251.3639985925186,-69.55386454177786,64.77849373002445,1
0.8051156562379047,-0.9606097978981747,1.8867006399895243,-27.775551794845676,49.714053457945965,30.53588205899314,-3.7932803347477773,-26.418746257809534,0
0.6598861746311246,-0.20495003210959184,1.7854873316667788,-44.23821852938175,-23.503988088207585,10.984745996855537,18.005344388636225,-29.50326882687569,0
-0.04106215938835667,0.46962264479327254,1.152132588169936,6.041616995667965,47.67991527787734,12.74497664813343,-6.770237591763877,11.35729619620804,0
3.07454715927672,3.3412812442693314,3.35215879052659,-275.7570634820894,-243.57250636317536,284.3512489895065,67.61915217547462,68.59566847871976,1
-0.42905919823831895,0.20125040514212644,1.2853586053435702,3.8552835453734673,17.889434770453562,33.34133798347622,-7.984427554973152,19.79098188767002,0
3.5016246386378542,3.9780560005992287,-0.43794750720737363,-234.69484004124587,230.32840218144602,-289.1838034148925,59.26342502244054,46.993144401795966,1
-2.9166986761267237,-3.748154745721786,-0.21961446230637383,-275.2670266716589,221.36266917129248,275.0080696889575,-60.58481974202583,68.00468044193867,1
-2.3180865600985774,-2.741575174039888,2.9655403745277535,-209.40906802502224,-246.07062238363312,-240.0379813746542,-66.68693702912663,-69.10451675193818,1
0.22239766062858135,-0.5643236175512776,2.0226436870947593,13.110340173348604,40.59616947481091,48.16007962397096,2.306720245472789,-11.411306720333027,0
2.8902187880923726,3.2414828584035655,3.5868276275949587,249.19413741798442,-261.65445920895957,-201.81782567776546,-76.93659578618188,54.049058067684825,1
2.804322580102219,2.857855144720726,-0.039089894119893165,-252.85253262645733,222.73852632442708,-268.10795506764066,47.049049691262574,78.65817640021515,1
-3.3291989074669264,-3.948168303655113,-0.7853206554508844,255.1220539242905,-267.84702956388804,208.06530733329467,67.77688117717716,-48.74406207829025,1
3.4158311409988675,-3.280698891522758,-0.8215456570429065,269.23756950005276,-221.0201918896345,263.4988207741562,-54.710070026231364,-84.7915935013872,1
-3.331365421810658,3.4711341039840153,-0.4171601808179164,-273.733371287497,-232.05805887255502,264.71344437752606,73.83239941060188,76.3302893639695,1
-0.45672260733508097,0.40626239333385694,1.055685126388844,18.54454230809742,-0.22676038589247582,18.67768146550543,-27.206892200824996,5.824989750608687,0
2.0746581490641547,-3.6307700637329816,0.22392688347476097,260.4694552304795,-227.0732168607464,271.9371675725542,-89.09367313116704,45.001778302378526,1
-3.7681442992740326,2.351444560901955,0.1482938259269686,252.07543034281912,-255.88682841916,-253.70416043946133,-76.78062451946593,60.49154337448164,1
-2.6476770450516565,-2.1430978822599025,-0.5186751487910567,253.10696711505528,202.3950008432996,235.30747726107828,62.009380917024856,-60.6930651340905,1
-0.6292610800604812,-0.45763961695016686,1.9041191970914901,-12.941609133999506,30.694229725068595,-13.521247564739802,8.586750759881767,14.373388578810584,0
3.987378441034454,-2.034857361506293,-0.7690386012544219,-255.18553816220677,283.56676062431364,239.83946971975539,-58.15106492543881,-54.50320391559195,1
0.4919343779729506,-0.470859000079221,2.176325126932997,-44.466334137043404,1.3051197132328625,-1.4201478652900121,-28.288524649756596,-14.983915883828487,0
0.7907808538248897,-0.9528482095127639,0.980878632776274,28.9723873964181,26.848289396105457,-35.39266638793536,-21.22643733157045,5.53105155630039,0
-0.7371858213273952,-0.30462487065442945,1.891898841635792,19.190235255452166,-24.550727253276627,10.130025083943849,-0.5073719933056289,-23.74272528754539,0
0.8975143197503384,0.8530667362989777,0.7746622315081959,-1.8832649241840898,25.068156057147846,6.817152446119771,12.124493220982295,-12.614217116050852,0
-0.7815276291429658,0.8702390536442592,2.372499583823883,-3.814849692886682,-0.09017315328496522,-47.28907286037346,8.662965621845977,-1.307375605993144,0
0.06879408598440451,0.2326894780680253,2.4914705352238933,-29.385928766799175,-8.645402552753247,8.859971294426636,-17.474764229923807,2.0850522900412045,0
-3.362061241753773,2.7420092994890446,3.139847253013243,285.7480363983944,-261.2752707094576,-214.2391395635384,-81.82906092640813,-72.43414096625222,1
-0.13667231107504052,-0.625591187170919,2.225664038553383,43.942761429767316,40.06878598955849,-24.3364423601503,-8.006573863389267,5.364280646487153,0
-0.3426078326281925,-0.39073043222946,1.2992772607349985,5.622889972609649,-7.23510547300161,-38.22228222563922,-17.859092563382923,10.463282117974614,0
-0.7614013168335538,0.2766684878982837,1.0207159689249752,-49.28620443981888,-22.559862400283816,6.16586232538657,-25.938435555968375,14.337905546479675,0
-0.6720926192736654,-0.07043490526333063,0.702428297622544,44.157924648617325,24.402139064882235,-42.60107141107534,-14.120449198839749,25.24040805019292,0
2.8223387958134207,-2.836760748979517,2.7196211250517095,244.73247456302073,270.4320384880701,-270.16930016417433,79.8032809130186,82.05754102286686,1
0.07495024171667852,-0.3116213950180342,1.3451627998278626,0.88194325868173,-8.923846176065531,38.53541044509625,17.17561650663385,-14.652856933575205,0
3.0265468980214134,2.993959916087123,-0.9932564808300899,238.6346041436795,239.51648807423297,-269.97709916487634,46.79446587237585,47.46974559697207,1
0.04323203534360154,0.6716398943591104,1.2202311185954495,9.763627662411466,18.4213471005301,37.98882651514529,14.710301782766436,-12.646542301118437,0
2.6183211101710597,2.5587522889212,-0.4049010233125314,222.17368173777962,-240.8585560588897,-271.93811967473476,-70.85816272001675,71.0692247649364,1
0.3178955915780741,0.8561403298284356,0.8571777727642413,10.44676544488545,-32.23106771473334,-43.20678271464109,11.682213353805253,-20.771418722419707,0
-0.8644936764005773,-0.6150952512358225,2.3924855385635473,46.63413396113151,-11.2878583000291,16.821303103400098,-9.899487283856935,-27.157411811692022,0
-0.25600251717006106,0.3702356953682113,1.875595323472116,-48.14109476140121,-47.79619394082656,14.406561128048196,5.485563500435447,-1.5842725802309303,0
0.36248066529960465,0.21867074532068442,1.7013322553215862,-42.88321919408812,43.95194648362573,30.55976501775052,26.65128944239997,-1.9667809275435886,0
-2.715173054980597,-2.1773529393844133,-0.6260514769814663,264.01845293184203,-281.5600617042655,-243.88967555350393,57.225840570849485,-83.24577601948641,1
-0.20305369377534777,-0.3108305601110577,1.8707374158929555,10.905373278618534,-49.28312597618917,11.91697057501748,-24.481658617375427,-10.634816566873898,0
-0.5389872974193328,-0.3923912594579775,0.7811896859890188,-31.33144955293352,14.463077335372134,19.219391529125787,-21.6708131518053,-12.747709804323918,0
0.7555825791181114,0.619050801958233,1.168268668123403,23.20244126686508,0.07824370714280349,-5.93644592331605,7.291452056369948,17.837886316010895,0
-3.555273818002538,3.46061115782957,2.937293642471733,-285.58217157809855,-279.55300778459633,-229.94936644799913,49.371916650919104,-46.92813984764696,1
0.06825397549059864,-0.024629739645714688,0.8884246152877473,6.719888609518755,-10.158250559182768,-4.4611452891859,5.231174616565717,-28.980586137990322,0
0.9546948502234711,-0.7493778525047061,2.3847149101264398,-16.455445941775018,-35.57905480674445,41.6303009953735,-3.2455076308408053,-29.24449767209603,0
-3.898715795155002,2.6062766605207988,0.027709063202633555,-253.8078116901931,-232.3488556076021,-229.16656649189838,59.52396261463479,-59.10437544031129,1
-0.2360323951759924,-0.3445584875252061,1.0761297485595545,43.834218084664755,44.12895142013244,-11.644921326304093,-27.925257146961478,16.882552333028393,0
-0.5182977141735805,0.11622623878325755,1.3562194265579504,-35.13506281594215,13.566008420041179,-8.447351904090048,28.177707936578273,-3.965969122938823,0
-2.833001950594704,-3.251323087637561,3.773324305226514,250.25322431981505,-243.20840294388626,254.24699624500985,-66.0474810450535,57.66837445312879,1
0.7157873963167218,0.05105979846852304,2.4475935700561253,-1.8099269894173986,39.892201409448035,-48.01565160780883,-28.906722419008315,2.943721146467638,0
0.38468972949304425,0.816540520617284,2.114775422381249,15.425217028939258,1.5906489546521598,33.84403458865786,-16.56923636265251,6.449109485968627,0
0.8065826318974945,-0.22669381916785514,1.5633791524457807,-32.32932617836764,-19.86770452023624,-0.3693379335253013,-13.661151745425904,-18.376008112529973,0
-0.5851642625042219,-0.44390127630652976,1.6594237414783528,6.136587660542581,-10.204215389115966,-27.25657500659637,-14.62394136237484,3.8188093913130103,0
0.2182267305052883,0.7877974825261571,1.7359608826657635,-7.075930904638049,-45.964764575262585,-6.222658483591495,9.048790052862323,-25.577481206983734,0
0.1409325233795249,0.34713022493178003,2.449532471879608,29.64269375711443,38.14951237616722,-8.213973864117165,4.212151934187261,29.105102020903473,0
3.483164515548889,-2.6630089881441874,0.25393476827145456,272.50281851199156,-215.14072819740662,-204.222700684151,89.41955525500569,89.98379899031292,1
0.428327668569789,0.9985106645720221,1.0112216245450154,-0.18670866928670904,25.077745045731376,6.679803913422546,28.05460130993597,-23.3048935751428,0
0.3238770851766213,0.7317363321125872,1.0725994001478618,45.18916527470138,-22.23618458733968,-41.05983901091442,3.835909220630107,25.74715022288639,0
-3.390245557729685,-2.3207331302779832,2.534199151684085,-261.8049929923787,221.21853255874925,-241.0940598161466,-75.68279227647164,59.761266453664575,1
0.9503948489670562,-0.7815899084314124,1.623979364955016,18.222212883356477,-9.487067753321831,8.331168466428252,26.124121543082467,-0.2496019394131146,0
-0.7548283663999868,0.9253790281524181,0.6723382987370736,44.82131222817655,42.58617537317116,28.6741731663368,7.231382014918047,29.285484009182994,0
-3.8661753409082484,2.862194001040733,0.4253806748830029,-291.6000718477791,202.44924186840638,223.22849248500884,60.14629191673536,58.7026607557688,1
0.69954544095238,0.9193735717465965,0.9657397431930788,-25.675814514718976,20.89856383728832,-20.759799711786396,12.278471239033038,29.140910613900544,0
0.18880390272455383,0.2609950106247185,1.5816995274486667,-37.58701606729613,47.118549760445774,-30.565782301040233,19.4612280572654,18.161494287665768,0
-0.44031741493682364,0.42117274359006496,1.3195690924734806,20.36329235896912,14.14522204824469,-19.074177378163093,3.856496146394001,16.346030384309813,0
0.9626660889224852,0.9322786381570891,1.0596796448110015,-1.9638288754161266,-41.22792336724616,29.54204527864873,-12.443583407754115,9.718703862119334,0
0.8129112674461096,0.9896243297390581,1.2981866863037856,-45.57770535031436,27.926563016506478,-37.45914314782361,-9.675321437741438,-5.483168694872088,0
-0.4652417912954494,-0.30648907032509976,0.899418359824059,20.41063405016864,-36.2272692680785,-41.34069468116995,-29.087443020134877,22.360281845491997,0
-2.7838706021455266,-2.5358027758386115,-0.22995655546192761,256.83539654781544,-230.11800754934563,-296.6497025052817,-51.33650704988311,-53.69804049943188,1
0.5541979444043783,-0.47228257342071234,2.1538465878612643,-36.05234486793508,-20.76084751272336,-41.11522746158922,-28.4365355655023,0.5637100887473281,0
-3.9942265177026943,-3.1032259832684206,3.064724253948887,286.40438313500545,-245.88763376354973,-226.25522595008323,73.00356804411614,-88.38089969221396,1
-0.18631476518515155,-0.48551671964523013,1.6774014311672611,-47.780327322324986,-9.430240650936874,30.142190169103444,26.607612693289433,-6.140239402036919,0
0.908116507053212,-0.315704999887209,1.362820360883536,-25.68759176858294,-37.302444144746104,45.89667838599915,-23.337694685787383,-21.77615390849035,0
-2.5000364358467326,3.3858529100646804,3.2288133238123966,280.5574510739361,276.5913055892528,-256.01249928121115,56.64726966354458,-79.0518312187829,1
-0.26759443821066364,0.21571443425815184,2.1935736805770216,-30.901040759077624,17.268031283962685,2.3210034541615983,24.455197391279633,19.761831405964266,0
0.0137098779428384,-0.7994921101345047,2.1417076576609406,49.734293009443604,-5.82623251215454,-26.702947314388638,24.907723514098215,-24.95898200055481,0
0.23179665645151504,0.5714181239686578,1.3429842441555224,-33.077352056404386,-22.747679020961186,0.5881798811835779,-28.049974019417874,-18.848557451392136,0
0.8554202828520663,-0.60915906261456,2.181668530041418,44.85915235102938,-35.37311240574317,15.565909443885772,-12.094846831087974,18.21740649150025,0
-0.0004088407087154966,-0.7584808832257586,1.9461203670803568,-22.196448753064512,-7.331668968275885,-38.48371865721592,26.03822529266936,11.238274589563254,0
-0.1519099503109631,0.9008437671074752,1.926971387657105,-33.86277284824034,41.06192542029558,-12.253621038882756,11.152003353526588,26.868264427310557,0
2.3423775782744904,-2.607196812743365,3.0343474517009734,235.5214313971578,222.06676739277734,-230.4956370139363,-71.56199449850696,-83.37940110587897,1
0.023138020610401933,0.9266725756620853,0.9492140890522074,-12.772360348734658,-4.832439799171041,-4.129114009962244,-12.364781490977773,18.380481404011654,0
0.7923633309324991,0.007083247906113144,2.2922021066822174,-41.6150422643368,-31.042979803651217,-37.956580999945075,-7.287242543463371,-19.93481723402943,0
-0.7296782310113201,0.5130658139176472,1.6344666716243628,31.266886131927663,7.691888684073476,5.852787691568395,0.6489485448927752,10.540913471908645,0
-0.24662677156005763,0.2057267291005711,1.1361881324365972,6.757738135503885,14.141126260571639,6.480687151921991,-15.052645513565395,5.230554576921989,0
0.46755796671401306,-0.7920531720440773,0.9738276053965353,21.130832363696655,5.555695811308247,-49.32950431396156,-5.3605190215077805,8.604527832793508,0
-0.11328295324276572,0.1686504444651673,0.9766484269867943,-12.794218261698973,-21.81613832768148,15.182966104446677,-4.743191043994528,-7.330372939285059,0
-0.31871493355169744,0.6535325549835143,2.0897213909618886,-11.436972773141576,28.437585323233137,40.45188273408695,-29.823680188737427,-29.52808389322831,0
-3.7998126965909096,2.188976460342046,0.34748409564867977,-257.00673127314997,217.5415588219584,-296.3970823960569,63.24472802358031,-75.36564983291885,1
3.5595753289578016,-3.686610452502146,0.26986971522002867,277.6497055085589,-215.96569230643004,-235.5395902551623,46.141417908361134,-49.91388988898225,1
2.185109374189632,3.1934471301936815,-0.4120326928826399,-232.3197485151866,-210.12525558407958,258.5804091836349,-46.337506151964156,-59.11967851551326,1
-2.5745638901823535,3.03868204392458,3.5755269002099213,-237.693666253356,229.04236885242457,206.85817972075876,84.14276190404686,-75.2874077167624,1
-0.961131510126433,0.956214687826886,1.9847092129603094,14.685481515692217,-2.2101372945732436,45.81604532860874,5.621835088004829,-15.19282119967897,0
0.8715542834931356,0.7548863627772306,2.157387032426894,10.948664951827404,-1.9754032733776654,39.3912425759908,17.241073211991193,25.337389801819846,0
0.4555054939145853,-0.24919362491118946,1.6474532005413376,-15.789558937812444,21.910024403818838,24.110307817878166,-0.969351113066768,18.879527001287606,0
0.3805497518858607,0.5282083768361752,2.146119887568627,-13.823537583986543,29.269450269423217,2.7062416409913155,-10.091229800736262,3.6751721335903937,0
0.8525123753825423,0.10256796143330171,1.6117476103315007,-22.70015729641922,27.45297626671534,-9.940227789148757,-7.30326118745749,-15.863399615299748,0
3.7812755942936147,-3.372475847675356,3.574396541690472,276.4838336300492,-207.46714301410447,-232.6512744236506,59.718867239011146,-56.613981725223745,1
2.3311712538419838,-2.528050837142377,2.721490529589068,-286.7707830146038,275.03302751343745,235.7242339101042,-76.09393434682522,-54.08434023415306,1
-3.7354056551710877,-2.7263396305910765,0.20960957181999773,286.7829631673691,204.5376817602417,-297.98609583204137,-76.6497344589365,58.618080279517564,1
-0.45527921611584987,-0.5374879727067905,1.4451006427887398,27.423597877431945,2.3044196728698623,40.18358278724091,-4.379086543656644,-10.620754962328395,0
0.3857758506515281,-0.1987401317960693,1.2298265768923005,35.89103657384196,44.160229766588316,-19.37164595899813,21.53258994727809,-5.330834393935884,0
3.0110994688939914,3.9819088029381424,-0.37172813874185084,211.718266430625,269.60725928906254,-289.2743740280467,-80.65405674745907,81.5029474946395,1
-0.8913710554849366,0.3464620365898572,2.213622807356355,30.000022895350057,-39.3342309753573,0.871184276825332,-8.476319236440467,7.141082764995957,0
2.561192744278336,-2.848540418285495,-0.9111599663735259,207.4082067212773,246.60809268527586,235.48722962238156,-67.79310758336891,-67.34339223890389,1
-3.372160943480015,-3.096897165534319,-0.6332117349780713,-231.41153602069164,-223.3065135254942,275.70907788027205,67.9886030376035,-87.94163394412725,1
2.640715408281794,2.3089065645891846,-0.11245481349936948,248.71248029971252,286.54192848681294,-258.7502792320273,-65.66628334087088,45.586592988329514,1
-0.8079691107927041,-0.13426044392876624,0.9749841455711852,-28.80063142735285,49.308315569670086,-40.748668612056946,-20.51772547122709,-8.871199259930446,0
-0.6402338401740089,0.8061092965357577,0.6253407857917004,-46.60558835042477,27.11415602971489,49.99803830638993,7.317351885364154,-16.70739944534271,0
3.2395299492040115,3.9471971390675433,-0.3427321359822706,249.33874233156186,256.1502202429025,264.709742766408,-79.43334941844302,-74.16358895864069,1
3.1539799408664617,-2.3767748388323247,-0.7835960821198918,-215.40840640145188,-278.5162012653513,282.62730617188936,-79.07394451458102,57.768522782220586,1
3.110352380503045,2.5185821607905527,3.6880894497886874,-283.6221685787965,221.73811908186832,231.3564334347877,-63.74523360388168,-45.85090136972138,1
2.564846076895228,2.9917318988431942,3.6750273452806255,210.38604151351458,-247.65533324110478,-268.7776742724866,50.27758842735092,-87.77660672968024,1
-2.8920516400225447,2.9509461789406166,3.821143783819122,285.3323738106642,238.94393276380163,260.82089377531724,-67.934162229396,48.215709149899965,1
0.7198659672200447,-0.17322979902501,1.157484986491053,9.275132697657952,-8.406785561381305,48.71175959507123,24.081680249915983,13.289179306548874,0
3.2738217691620433,3.393830959324275,3.2844089019356275,242.95470701900155,-299.68999744280336,274.1249718056072,-80.83323303965606,73.56955578604153,1
3.7700903041434435,-3.120970888276002,0.24091440786512908,-266.8296711538297,-261.351306187907,266.9395659687818,-65.72491006263364,-74.5509900957518,1
2.1661384521080915,3.695658269984195,0.03028346442883878,-285.3064653777724,-269.50771142692395,-251.53382312441346,-89.81643374123031,87.030045126827,1
-2.327168469026046,2.0243634429796193,3.9755573588152853,282.1978676318553,-265.6584662836823,-224.822117014006,79.76787857677272,86.92313346217972,1
0.22802818914907208,-0.6168156863053438,2.1777633101367946,-44.67792837944011,-48.75371018993167,45.88828583657882,-3.8473217736579137,5.0537859475867535,0
-2.1201232311095763,-3.9120676319296837,3.9188021911690836,-253.5934765097758,265.9380329356645,-291.2171567645151,-52.19658553951672,-83.8413400957508,1
3.967368662939679,2.9511113958105812,3.577952250929605,-203.40991273491056,233.0360287609708,-263.51739975874517,55.353300012345805,-88.98774294299967,1
0.5054636362876741,0.6893967182606193,2.4786283037280645,31.416020360615306,-42.32657144760144,-22.162937790997915,20.325492963412287,20.28030948029142,0
-0.07397653263144188,0.9653969315117594,1.8872641541869217,13.972308806173864,14.82883411304465,47.390404370873966,12.058420163079312,-9.335311409296274,0
-0.9979698324227841,0.5866336655648354,0.6055647553094134,-10.52592295483209,5.421044016288931,39.4173003969906,10.079532864754412,12.925903138720834,0
2.834476609239821,-2.780770184731623,-0.15983478977001875,231.23750290924107,-287.49171583918667,251.2859662853733,-51.16912136908242,48.014113219830016,1
-2.825089461065212,-3.9930946803253575,-0.9949316901953666,204.9678652616381,248.33451495239694,228.09833130732062,48.95583315221645,74.78161718696381,1
-2.408291568504535,3.4128522147964553,-0.6141059868086656,261.3497091076755,-215.79557952110696,270.77101033581425,-72.65970268534207,86.49896944308531,1
3.3895068550165837,-2.728864123021931,2.984574097040957,-243.71637459427012,-238.3473851171806,202.9778070889379,66.7045865640199,59.32420677963434,1
-2.515371221727696,-2.305313629478616,3.135305654525727,-281.5728609171967,214.9356974805664,209.5500400815024,-78.01622742443585,53.36573823415496,1
-0.1894206902482769,-0.2898699044120876,2.2021804118530675,-36.986342585359765,25.175656437570836,-36.24751715734985,-16.466826572657297,20.086519978709646,0
3.1860855969597903,-2.305610113997418,-0.7153536546035029,209.19164571172394,-285.28608565927544,218.58668821255046,54.75325188911872,45.40979186828229,1
0.1981417302251698,0.307921338442795,1.4560870676661861,16.027384965490512,-37.06393735913753,9.984373609291495,29.45856564193854,28.71032363176387,0
-2.9770996430858054,-2.4897401919845756,3.462612962924563,218.637398320147,295.37865041730134,296.2440932499874,-79.78257513339051,-76.53853660991084,1
0.0096691266475335,-0.600326180446846,1.6886472508883013,-36.51412699791361,48.26430172664105,-2.363803899369479,3.471732932677263,-0.42803897216430187,0
3.1429865177556016,-2.16564919586389,3.7885626896000577,234.27223408421344,235.8985740444772,204.2281295063675,-59.863731459180116,66.4898223227519,1
-0.1726402795847073,-0.6152548504334692,0.8703173922445984,33.53431274738888,-22.370421635518966,-14.198558207789347,-13.504638520157577,-11.33565636809875,0
2.686941069240458,-2.438716725086544,-0.6496838452520536,228.78589181532996,-256.9170450661251,-242.41995898747214,56.52534422364463,-82.64445594596161,1
-2.0151629419185264,3.0180104816227287,-0.3069666952696152,207.75391854156842,-204.35366885951538,-269.05583315777756,87.07404252512059,69.3361147667298,1
-0.029936302254431668,0.46086710376523987,1.1696484288298559,-47.32904253396145,5.585393151806272,-25.001902926533393,29.375351470803388,12.63525776040219,0
0.1464518437963671,0.7239743520310826,0.978325055321049,12.950219194898118,47.31148894989123,-15.256287175922537,12.935516848122937,27.790820832656344,0
-3.6684088515165065,3.0850408673023626,3.4267157065536793,-287.875427356215,260.8794937427935,-228.77455563587853,67.14706291389079,-50.991896875313344,1
0.9153657020618868,0.7001091220243179,2.422141467804792,4.7591532607033855,29.91660245460436,8.652924921807092,1.3780508749717448,29.431469190025226,0
-0.7064041934291174,-0.7458668343281538,2.296667928809854,-25.16616900326053,-32.378717598844645,-19.762965759880846,25.47852122726436,-29.046144665823007,0
0.8847661446648181,0.3169989266281177,1.444363931721055,39.41881814557621,-26.76517421242669,-46.5162648977977,-24.29771845817672,-29.54741966389991,0
-2.4988029392719437,3.909705554726535,3.7047527424963573,-216.0352588565625,-232.50945561707067,-256.0575021033048,-53.32155207867963,78.39531967628275,1
-3.5054472072208585,2.7900649362679903,-0.5118593308886483,-256.992800934221,286.7533688049859,-228.91404991440197,-85.52224052267965,79.48049370098896,1
2.645398623312518,3.792263365439948,3.104843659912053,231.73172112691492,-229.66982466311254,-207.05051987286205,66.53936748969048,-80.75530127263985,1
-0.9422581495251512,-0.9524874534856616,1.22608410354742,-9.113564740203394,3.4994124910124356,3.248643919456349,16.598583254410826,-18.491440860828448,0
-2.641825779146663,-2.6448552689688114,3.9346063638300124,294.97722843869053,-257.0155368929914,299.1647766529323,57.01940877147625,-61.59458609211568,1
0.42150383319422513,0.49208898062175566,0.9941398948256237,36.88119788248633,4.822950972639553,14.714567091864595,14.828167638001794,-4.846132752884085,0
-0.7774685603024654,0.47162444014063576,0.7899987962369126,2.7412697585240906,21.808168295607572,13.58401753638816,12.962817552932613,9.548975661117659,0
0.11842457918433102,-0.1409139102582222,1.972696000471793,44.81202882457153,0.40955324157575745,-49.86858155601836,27.43821268152074,5.48792635755364,0
-0.799766706177989,-0.07546819794790438,0.7234407344671192,-29.246210658341244,-49.18935330981481,-16.405613049827707,-23.16865458092485,-26.644695589949855,0
3.903116899183682,2.1717709515254295,2.6883177022616875,201.99420422835203,277.83674127003184,-233.684831192037,63.02388927809719,86.10651341151159,1
-0.6196366193878657,0.29867091055916584,1.0155597412972213,-43.37950814543219,0.1282825965359251,-36.60749567283074,-20.176429819897635,29.751822852815963,0
3.2216524631979544,-2.0565231912660753,-0.6380340982838255,280.2820852574369,234.32011554660488,-213.36707876944848,-52.415243920890845,-89.52541187782805,1
-0.9835117813452903,-0.8424062213556269,1.8393401817350408,-0.12460915147065776,-41.263518883984716,-44.10953597196479,-23.7960032923921,-14.35863792363149,0
-2.9449654262935523,3.0512612037424027,-0.671407708823085,280.4752831743555,273.9735127649536,-219.5592536290939,76.21152000083649,-52.600461803111536,1
-0.4840314847906326,0.10600480006410873,0.7553988297315941,-44.72426000722716,24.295824630244184,4.142884511865084,18.466653578039264,-3.9593982019855503,0
-3.3321269232248283,2.466187155871115,0.22460936206758664,270.74641469898575,208.64319615638624,225.45170318362952,-47.164809189396735,86.9318453085147,1
-0.35445583810580694,-0.8190789767338049,2.0539844616346574,44.45030858299526,-12.42963830553002,-32.374506631994635,29.27822991283292,-0.8050444180111462,0
-0.05725772031514165,0.25116576940607005,0.589598942580478,20.22690344662827,27.093942325721315,40.74177433368568,-27.54868962167499,24.470674918451387,0
3.0024240253831653,-2.2034865701852313,3.7780778459913402,-214.77330777858987,278.2745729717787,229.6060683391329,81.41063048845811,-54.24652666956518,1
0.06434098630426832,0.6310413035749376,2.2020707377363653,39.973932659557235,34.848525643026264,0.45870118686715955,0.11058417646769314,16.768382946361385,0
3.9985366926840227,2.63793714258271,3.9522411677362594,-220.43082370584233,-295.8441827615694,253.5927343218093,-61.32466790057148,-88.02878925093584,1
3.8324155676736176,-2.451668796421882,3.424332164608683,-230.16848773335198,-212.16236553829975,200.17115853289454,66.48403461517074,65.48160331743172,1
3.8212607625751747,-3.457255920775934,3.0728772525645027,259.8125641626537,256.195460377223,-256.0197887966714,54.11779282752614,56.73198771280146,1
2.215713356410632,2.870606147014476,0.18448456645944677,250.9360982775831,246.54130869570432,-224.57400308963324,-69.62799513132711,62.035145677659344,1
-0.3154004427967114,-0.4487628054035624,0.983794396765979,-39.30809857238921,34.447233453397715,35.69674521284098,-26.509196125477608,-8.746059908426634,0
3.1222676428301726,-2.5632001718825186,0.10021454446364952,248.07145053768514,293.74096681227047,-200.8101906887295,-71.82475495384652,-47.74688305250482,1
-0.9055225335946613,0.7972597899177452,0.9234986419016631,-1.7534644788002467,48.494432783992536,20.953836649960607,-19.017763545017417,17.383151798996103,0
-0.7449142884174675,0.359890384259566,1.0284228878096633,36.95080835689298,25.12822535935892,12.668189596319458,20.13999403069917,5.865873000938677,0
0.8147585391258436,-0.7908168762551997,2.4225317311310395,11.032996867060298,-33.61275731483153,18.50067888186058,18.584679490512073,25.785332791440517,0
3.4666587749874984,3.599641634752837,3.14688128582724,-271.6108619602497,292.0779645806666,237.7214915211803,-45.8367574316218,-80.44064108526575,1
-3.4139656791174113,-2.7021357862892943,0.0278572868763709,203.87812457520758,-299.1674774572665,-291.8127730896642,82.58441481149535,59.31153470223971,1
-0.9255560824882416,-0.04929846449786934,2.3629122276357153,49.49535228907284,22.57452604827384,29.63124900274792,2.6271818485591965,18.990077124415535,0
0.38150322710160744,0.9524350172795717,1.3127352797035596,6.9148841380069825,44.84659965557486,15.427487737585949,6.916010080900179,17.218053569299094,0
0.9453641024410431,-0.5689002022522764,1.497531322240781,-18.587546795361643,13.175914850122041,-41.32302561702599,18.51260329351068,3.1729405017173846,0
-3.1230887807836174,2.4932476695647683,-0.7143771373986567,-260.6266537859834,291.37823531237825,219.87067300252397,61.10533284410397,-81.2276318133194,1
-0.174647984098258,0.15639694811799276,1.3896301601440844,-2.26984779552577,15.21046722868347,7.018117365596069,10.696291923089731,1.0557271563742638,0
-2.579597935257084,-2.358083535193285,0.3167534296625294,299.78541876184454,-276.1094853322897,-247.4340674108098,68.10013309757808,63.425474931066695,1
-0.9659952436527315,0.9955299111257996,1.471406896551204,-2.9083041484192904,16.387698489005203,-19.806293519068575,-6.647301839031275,-5.712978397526868,0
0.9128976980685481,-0.12199478957458121,2.0659632194413664,-44.362041792376786,45.916008730416664,32.374153079145245,6.945757788071184,-10.617396101616944,0
-0.46145997293319474,0.8950547978081442,1.9021454786884693,-20.784563245418774,-43.08393605316313,-39.11176982606683,-21.95027435342917,17.062375484848012,0
3.3058977650154993,3.6059200782324474,-0.8573769553776243,269.994588124812,244.93555640918797,-288.5655499823487,-72.23308469362328,-84.31494380812892,1
3.6403175478766467,3.115586078849546,2.528865674376474,244.95656366111558,289.247965332973,-274.9685201229626,88.06461920985967,89.1671355272943,1
-0.5309128433902224,0.47434398622564133,2.18784961602044,-15.198934981301413,-1.4871430988050562,29.494096402352454,0.9109569373618385,-27.027455582034634,0
0.5845998785595217,0.4350462526956713,0.5351978236653947,1.5174232187734162,30.568040415087054,-7.939181149290079,-2.4581409560365266,-20.509420945447186,0
3.413524371119216,3.96436787786362,3.470281275663797,270.5747918765611,246.15215678311307,-284.1834639119673,83.83932252384696,69.49818428367098,1
0.17434517326484467,-0.5663239600877805,2.0409933854490125,-0.5132821601474973,42.500598699092976,-27.721889574309632,1.9721623049138834,27.979908432723967,0
-2.599713474058099,3.622427003836311,3.576981376922846,219.56998025525326,-249.625262450795,234.02052204767188,87.7085978388965,-54.603588957236624,1
-0.015145503388526604,0.15933506254585472,1.985685747756023,4.008867841435951,33.69174147638027,-10.3952791403089,3.4835672044902424,19.29971125669146,0
-3.2080270829543416,-3.6262808428104476,3.276670357825152,207.64640841192397,265.5826787911725,-268.40974847786106,51.72389264140171,56.38887790649524,1
-0.7782224357981966,-0.06937211721305703,1.4849939168552173,5.882257716223535,-10.763379117710635,-36.30085134696428,11.338073043512907,1.1718642794726328,0
2.9339879213641624,3.111131284332359,3.561759073124792,272.0234984602527,259.2338444873391,279.216541666458,-53.16980871701542,-87.09662202212968,1
-0.6723896147721962,-0.928571849825754,0.8089489310511224,44.34355641649836,-41.76090824720954,8.30255190543577,-3.9004122604996,-20.608593165744118,0
0.8409275877893689,-0.8979606622374317,0.7917962381303689,-27.246355310593085,-29.071288087516923,-29.08788208081612,-7.631328204980779,-12.830016392524083,0
-0.307345293958881,0.38416748501143516,2.394871332978014,13.94127291646069,-17.29575718504681,43.918886166539366,-2.412722083512179,-8.437376512400107,0
-2.798919263561517,-2.842319846732691,2.973833858643072,-238.33841836494113,261.6216622666578,-264.8424781224491,-86.33508792025746,-52.051617084326494,1
-2.2063014459768686,-2.407974218841349,0.4313981690722599,-208.6586120375111,-214.20153407518023,-275.3037630398081,-78.47470787106101,-73.59447997433222,1
3.1912338863922023,-3.6056144197639415,0.24270375045804427,-244.7157676173261,-225.49184782253232,261.4893983856874,-80.96027811946077,68.648582891772,1
-0.7372057122316327,0.7492396408253552,1.448014330228619,44.23836644901171,-37.53983062684924,45.60865109962661,-23.823875023456008,-3.259208583405009,0
-0.8198735040315943,-0.1938154489480881,1.386614533908006,-35.444476143583685,-23.065528113731848,1.9608346461820645,17.84838294818968,16.56391940910371,0
-0.27812186108398596,0.9821121038832512,0.7573273781366843,-36.74181612075972,31.268079932253585,34.38670862625075,-8.300519556149634,-29.112731467277033,0
0.8213229612536002,-0.20253806903442206,1.8342804547115863,-22.419769690444426,-44.11892994816714,-37.80584871426757,-5.3941007739646665,-28.956292234884547,0
0.9045544728967829,-0.36162159535380933,1.402709508225952,29.57724977955013,5.421764137293117,20.347414690061896,-1.4776380278533523,9.926504861069837,0
0.9436557795648863,-0.11394497338755327,1.1437388848089574,47.1518618196241,14.230535832752281,-48.760419175905035,-27.800436840131518,15.733651029182752,0
-0.7951536888216639,-0.2193040047220638,0.6374274014906314,35.35520897953958,-31.503248081639136,-3.436257320040859,13.684962658707242,10.384554287104265,0
-0.6814053441304997,0.05020185996971627,2.2947757981947614,-13.29151955365706,-20.14562153770597,37.3904115172453,3.1474083138828703,2.6383463340370312,0
